,accelerometerAccelerationX(G),accelerometerAccelerationY(G),accelerometerAccelerationZ(G)
0,10.666666666666666,-526.9333333333333,59.733333333333334
1,19.2,-531.2,64.0
2,17.066666666666666,-529.0666666666666,68.26666666666667
3,14.933333333333334,-531.2,55.46666666666667
4,14.933333333333334,-529.0666666666666,53.333333333333336
5,14.933333333333334,-529.0666666666666,64.0
6,14.933333333333334,-529.0666666666666,61.86666666666667
7,12.8,-533.3333333333334,68.26666666666667
8,10.666666666666666,-537.6,61.86666666666667
9,12.8,-535.4666666666667,64.0
10,10.666666666666666,-541.8666666666667,68.26666666666667
11,10.666666666666666,-537.6,70.4
12,10.666666666666666,-533.3333333333334,70.4
13,14.933333333333334,-537.6,70.4
14,14.933333333333334,-539.7333333333333,70.4
15,14.933333333333334,-544.0,74.66666666666667
16,14.933333333333334,-539.7333333333333,68.26666666666667
17,12.8,-533.3333333333334,70.4
18,8.533333333333333,-535.4666666666667,70.4
19,8.533333333333333,-539.7333333333333,64.0
20,12.8,-539.7333333333333,61.86666666666667
21,14.933333333333334,-544.0,72.53333333333333
22,12.8,-533.3333333333334,61.86666666666667
23,14.933333333333334,-535.4666666666667,61.86666666666667
24,17.066666666666666,-537.6,68.26666666666667
25,12.8,-533.3333333333334,66.13333333333333
26,12.8,-544.0,68.26666666666667
27,8.533333333333333,-537.6,68.26666666666667
28,17.066666666666666,-541.8666666666667,72.53333333333333
29,12.8,-539.7333333333333,66.13333333333333
30,10.666666666666666,-533.3333333333334,55.46666666666667
31,17.066666666666666,-537.6,66.13333333333333
32,12.8,-535.4666666666667,59.733333333333334
33,19.2,-529.0666666666666,66.13333333333333
34,17.066666666666666,-537.6,64.0
35,14.933333333333334,-531.2,66.13333333333333
36,19.2,-533.3333333333334,61.86666666666667
37,10.666666666666666,-529.0666666666666,64.0
38,10.666666666666666,-526.9333333333333,64.0
39,21.333333333333332,-539.7333333333333,57.6
40,23.466666666666665,-531.2,70.4
41,23.466666666666665,-537.6,68.26666666666667
42,19.2,-537.6,61.86666666666667
43,21.333333333333332,-533.3333333333334,70.4
44,21.333333333333332,-531.2,66.13333333333333
45,12.8,-535.4666666666667,64.0
46,19.2,-533.3333333333334,64.0
47,21.333333333333332,-544.0,61.86666666666667
48,21.333333333333332,-539.7333333333333,66.13333333333333
49,21.333333333333332,-539.7333333333333,66.13333333333333
50,23.466666666666665,-541.8666666666667,66.13333333333333
51,23.466666666666665,-537.6,68.26666666666667
52,14.933333333333334,-539.7333333333333,70.4
53,14.933333333333334,-537.6,59.733333333333334
54,23.466666666666665,-539.7333333333333,61.86666666666667
55,17.066666666666666,-535.4666666666667,70.4
56,19.2,-531.2,59.733333333333334
57,14.933333333333334,-535.4666666666667,59.733333333333334
58,17.066666666666666,-537.6,64.0
59,19.2,-531.2,61.86666666666667
60,19.2,-537.6,59.733333333333334
61,19.2,-533.3333333333334,57.6
62,17.066666666666666,-531.2,55.46666666666667
63,14.933333333333334,-531.2,64.0
64,17.066666666666666,-533.3333333333334,59.733333333333334
65,17.066666666666666,-537.6,61.86666666666667
66,14.933333333333334,-535.4666666666667,66.13333333333333
67,14.933333333333334,-539.7333333333333,64.0
68,21.333333333333332,-541.8666666666667,57.6
69,21.333333333333332,-537.6,66.13333333333333
70,21.333333333333332,-539.7333333333333,70.4
71,17.066666666666666,-535.4666666666667,64.0
72,19.2,-535.4666666666667,53.333333333333336
73,14.933333333333334,-537.6,61.86666666666667
74,14.933333333333334,-541.8666666666667,66.13333333333333
75,21.333333333333332,-531.2,55.46666666666667
76,17.066666666666666,-533.3333333333334,61.86666666666667
77,21.333333333333332,-537.6,55.46666666666667
78,14.933333333333334,-535.4666666666667,51.2
79,19.2,-541.8666666666667,61.86666666666667
80,17.066666666666666,-544.0,55.46666666666667
81,19.2,-535.4666666666667,66.13333333333333
82,21.333333333333332,-537.6,64.0
83,17.066666666666666,-539.7333333333333,61.86666666666667
84,17.066666666666666,-537.6,59.733333333333334
85,17.066666666666666,-537.6,59.733333333333334
86,19.2,-535.4666666666667,59.733333333333334
87,17.066666666666666,-535.4666666666667,64.0
88,21.333333333333332,-535.4666666666667,59.733333333333334
89,14.933333333333334,-531.2,64.0
90,19.2,-544.0,55.46666666666667
91,19.2,-539.7333333333333,59.733333333333334
92,19.2,-539.7333333333333,61.86666666666667
93,17.066666666666666,-539.7333333333333,66.13333333333333
94,14.933333333333334,-535.4666666666667,61.86666666666667
95,21.333333333333332,-539.7333333333333,64.0
96,14.933333333333334,-544.0,55.46666666666667
97,12.8,-531.2,66.13333333333333
98,17.066666666666666,-533.3333333333334,64.0
99,17.066666666666666,-535.4666666666667,64.0
100,17.066666666666666,-537.6,61.86666666666667
101,19.2,-537.6,66.13333333333333
102,19.2,-535.4666666666667,66.13333333333333
103,19.2,-539.7333333333333,66.13333333333333
104,12.8,-535.4666666666667,64.0
105,23.466666666666665,-535.4666666666667,59.733333333333334
106,14.933333333333334,-531.2,61.86666666666667
107,17.066666666666666,-529.0666666666666,70.4
108,14.933333333333334,-537.6,64.0
109,21.333333333333332,-535.4666666666667,72.53333333333333
110,17.066666666666666,-533.3333333333334,57.6
111,17.066666666666666,-533.3333333333334,72.53333333333333
112,14.933333333333334,-537.6,64.0
113,25.6,-541.8666666666667,61.86666666666667
114,19.2,-535.4666666666667,70.4
115,23.466666666666665,-544.0,70.4
116,21.333333333333332,-544.0,64.0
117,14.933333333333334,-537.6,66.13333333333333
118,17.066666666666666,-544.0,61.86666666666667
119,10.666666666666666,-529.0666666666666,66.13333333333333
120,14.933333333333334,-529.0666666666666,66.13333333333333
121,14.933333333333334,-535.4666666666667,61.86666666666667
122,17.066666666666666,-535.4666666666667,68.26666666666667
123,14.933333333333334,-531.2,66.13333333333333
124,14.933333333333334,-526.9333333333333,68.26666666666667
125,19.2,-535.4666666666667,61.86666666666667
126,17.066666666666666,-535.4666666666667,68.26666666666667
127,19.2,-537.6,68.26666666666667
128,19.2,-537.6,68.26666666666667
129,17.066666666666666,-531.2,61.86666666666667
130,14.933333333333334,-529.0666666666666,70.4
131,19.2,-535.4666666666667,68.26666666666667
132,21.333333333333332,-533.3333333333334,70.4
133,21.333333333333332,-526.9333333333333,74.66666666666667
134,14.933333333333334,-533.3333333333334,81.06666666666666
135,17.066666666666666,-529.0666666666666,64.0
136,21.333333333333332,-533.3333333333334,78.93333333333334
137,17.066666666666666,-529.0666666666666,70.4
138,19.2,-533.3333333333334,68.26666666666667
139,23.466666666666665,-533.3333333333334,72.53333333333333
140,17.066666666666666,-529.0666666666666,68.26666666666667
141,17.066666666666666,-533.3333333333334,66.13333333333333
142,12.8,-531.2,70.4
143,23.466666666666665,-535.4666666666667,70.4
144,14.933333333333334,-533.3333333333334,74.66666666666667
145,19.2,-537.6,68.26666666666667
146,21.333333333333332,-535.4666666666667,74.66666666666667
147,17.066666666666666,-533.3333333333334,72.53333333333333
148,12.8,-533.3333333333334,70.4
149,14.933333333333334,-526.9333333333333,68.26666666666667
150,19.2,-533.3333333333334,64.0
151,17.066666666666666,-537.6,64.0
152,14.933333333333334,-537.6,76.8
153,12.8,-533.3333333333334,68.26666666666667
154,12.8,-541.8666666666667,70.4
155,21.333333333333332,-539.7333333333333,74.66666666666667
156,19.2,-537.6,70.4
157,14.933333333333334,-537.6,64.0
158,23.466666666666665,-533.3333333333334,74.66666666666667
159,17.066666666666666,-533.3333333333334,68.26666666666667
160,17.066666666666666,-529.0666666666666,66.13333333333333
161,21.333333333333332,-531.2,66.13333333333333
162,17.066666666666666,-529.0666666666666,72.53333333333333
163,19.2,-531.2,74.66666666666667
164,19.2,-529.0666666666666,76.8
165,14.933333333333334,-529.0666666666666,72.53333333333333
166,21.333333333333332,-533.3333333333334,72.53333333333333
167,17.066666666666666,-529.0666666666666,59.733333333333334
168,14.933333333333334,-533.3333333333334,78.93333333333334
169,17.066666666666666,-535.4666666666667,74.66666666666667
170,17.066666666666666,-535.4666666666667,74.66666666666667
171,17.066666666666666,-535.4666666666667,64.0
172,17.066666666666666,-533.3333333333334,72.53333333333333
173,19.2,-531.2,74.66666666666667
174,14.933333333333334,-537.6,72.53333333333333
175,19.2,-537.6,70.4
176,14.933333333333334,-533.3333333333334,72.53333333333333
177,19.2,-535.4666666666667,72.53333333333333
178,17.066666666666666,-533.3333333333334,74.66666666666667
179,12.8,-535.4666666666667,72.53333333333333
180,19.2,-533.3333333333334,70.4
181,21.333333333333332,-531.2,72.53333333333333
182,14.933333333333334,-539.7333333333333,74.66666666666667
183,12.8,-535.4666666666667,68.26666666666667
184,19.2,-526.9333333333333,64.0
185,21.333333333333332,-539.7333333333333,70.4
186,23.466666666666665,-533.3333333333334,72.53333333333333
187,19.2,-535.4666666666667,76.8
188,17.066666666666666,-535.4666666666667,81.06666666666666
189,19.2,-533.3333333333334,66.13333333333333
190,17.066666666666666,-533.3333333333334,72.53333333333333
191,14.933333333333334,-529.0666666666666,74.66666666666667
192,17.066666666666666,-531.2,72.53333333333333
193,23.466666666666665,-539.7333333333333,68.26666666666667
194,21.333333333333332,-537.6,76.8
195,21.333333333333332,-535.4666666666667,76.8
196,10.666666666666666,-535.4666666666667,70.4
197,17.066666666666666,-539.7333333333333,74.66666666666667
198,12.8,-529.0666666666666,70.4
199,19.2,-533.3333333333334,66.13333333333333
200,17.066666666666666,-529.0666666666666,74.66666666666667
201,12.8,-531.2,68.26666666666667
202,14.933333333333334,-533.3333333333334,68.26666666666667
203,21.333333333333332,-531.2,68.26666666666667
204,14.933333333333334,-535.4666666666667,68.26666666666667
205,17.066666666666666,-535.4666666666667,74.66666666666667
206,21.333333333333332,-529.0666666666666,74.66666666666667
207,21.333333333333332,-541.8666666666667,72.53333333333333
208,19.2,-533.3333333333334,64.0
209,17.066666666666666,-533.3333333333334,64.0
210,21.333333333333332,-539.7333333333333,70.4
211,23.466666666666665,-533.3333333333334,66.13333333333333
212,19.2,-535.4666666666667,70.4
213,17.066666666666666,-533.3333333333334,70.4
214,17.066666666666666,-535.4666666666667,83.2
215,10.666666666666666,-533.3333333333334,74.66666666666667
216,17.066666666666666,-533.3333333333334,76.8
217,14.933333333333334,-531.2,83.2
218,21.333333333333332,-537.6,72.53333333333333
219,17.066666666666666,-535.4666666666667,74.66666666666667
220,12.8,-535.4666666666667,72.53333333333333
221,14.933333333333334,-537.6,66.13333333333333
222,17.066666666666666,-535.4666666666667,78.93333333333334
223,14.933333333333334,-537.6,76.8
224,14.933333333333334,-537.6,72.53333333333333
225,19.2,-533.3333333333334,76.8
226,12.8,-541.8666666666667,78.93333333333334
227,19.2,-539.7333333333333,78.93333333333334
228,19.2,-539.7333333333333,70.4
229,8.533333333333333,-537.6,78.93333333333334
230,17.066666666666666,-531.2,72.53333333333333
231,23.466666666666665,-535.4666666666667,70.4
232,10.666666666666666,-529.0666666666666,74.66666666666667
233,14.933333333333334,-529.0666666666666,70.4
234,21.333333333333332,-537.6,81.06666666666666
235,17.066666666666666,-531.2,76.8
236,17.066666666666666,-533.3333333333334,76.8
237,14.933333333333334,-529.0666666666666,74.66666666666667
238,21.333333333333332,-537.6,76.8
239,17.066666666666666,-535.4666666666667,74.66666666666667
240,10.666666666666666,-533.3333333333334,72.53333333333333
241,17.066666666666666,-533.3333333333334,70.4
242,12.8,-533.3333333333334,68.26666666666667
243,19.2,-531.2,72.53333333333333
244,19.2,-537.6,74.66666666666667
245,19.2,-531.2,76.8
246,17.066666666666666,-533.3333333333334,72.53333333333333
247,17.066666666666666,-529.0666666666666,72.53333333333333
248,12.8,-533.3333333333334,76.8
249,19.2,-541.8666666666667,68.26666666666667
250,21.333333333333332,-529.0666666666666,68.26666666666667
251,19.2,-537.6,74.66666666666667
252,14.933333333333334,-531.2,74.66666666666667
253,19.2,-535.4666666666667,70.4
254,21.333333333333332,-533.3333333333334,68.26666666666667
255,19.2,-535.4666666666667,68.26666666666667
256,17.066666666666666,-533.3333333333334,61.86666666666667
257,14.933333333333334,-544.0,61.86666666666667
258,10.666666666666666,-539.7333333333333,72.53333333333333
259,8.533333333333333,-537.6,70.4
260,14.933333333333334,-535.4666666666667,70.4
261,14.933333333333334,-535.4666666666667,70.4
262,17.066666666666666,-537.6,74.66666666666667
263,12.8,-531.2,70.4
264,17.066666666666666,-537.6,70.4
265,17.066666666666666,-535.4666666666667,61.86666666666667
266,21.333333333333332,-533.3333333333334,70.4
267,21.333333333333332,-535.4666666666667,70.4
268,12.8,-526.9333333333333,70.4
269,21.333333333333332,-539.7333333333333,64.0
270,14.933333333333334,-531.2,70.4
271,21.333333333333332,-535.4666666666667,74.66666666666667
272,21.333333333333332,-537.6,70.4
273,19.2,-529.0666666666666,76.8
274,14.933333333333334,-531.2,70.4
275,19.2,-533.3333333333334,68.26666666666667
276,10.666666666666666,-531.2,74.66666666666667
277,12.8,-531.2,74.66666666666667
278,10.666666666666666,-533.3333333333334,68.26666666666667
279,17.066666666666666,-535.4666666666667,70.4
280,17.066666666666666,-533.3333333333334,66.13333333333333
281,12.8,-535.4666666666667,70.4
282,17.066666666666666,-533.3333333333334,64.0
283,17.066666666666666,-533.3333333333334,68.26666666666667
284,17.066666666666666,-531.2,68.26666666666667
285,10.666666666666666,-531.2,64.0
286,19.2,-537.6,66.13333333333333
287,12.8,-531.2,57.6
288,10.666666666666666,-537.6,61.86666666666667
289,21.333333333333332,-537.6,70.4
290,19.2,-537.6,70.4
291,21.333333333333332,-539.7333333333333,70.4
292,21.333333333333332,-535.4666666666667,68.26666666666667
293,17.066666666666666,-533.3333333333334,74.66666666666667
294,12.8,-526.9333333333333,78.93333333333334
295,14.933333333333334,-535.4666666666667,68.26666666666667
296,21.333333333333332,-533.3333333333334,68.26666666666667
297,12.8,-535.4666666666667,66.13333333333333
298,14.933333333333334,-533.3333333333334,61.86666666666667
299,17.066666666666666,-537.6,70.4
300,14.933333333333334,-533.3333333333334,72.53333333333333
301,21.333333333333332,-548.2666666666667,74.66666666666667
302,17.066666666666666,-537.6,70.4
303,19.2,-539.7333333333333,61.86666666666667
304,12.8,-539.7333333333333,74.66666666666667
305,10.666666666666666,-541.8666666666667,64.0
306,14.933333333333334,-539.7333333333333,68.26666666666667
307,21.333333333333332,-539.7333333333333,61.86666666666667
308,17.066666666666666,-539.7333333333333,70.4
309,17.066666666666666,-544.0,76.8
310,19.2,-544.0,61.86666666666667
311,14.933333333333334,-537.6,66.13333333333333
312,17.066666666666666,-541.8666666666667,74.66666666666667
313,17.066666666666666,-535.4666666666667,59.733333333333334
314,12.8,-533.3333333333334,64.0
315,17.066666666666666,-533.3333333333334,61.86666666666667
316,21.333333333333332,-541.8666666666667,72.53333333333333
317,10.666666666666666,-535.4666666666667,66.13333333333333
318,14.933333333333334,-526.9333333333333,72.53333333333333
319,21.333333333333332,-535.4666666666667,68.26666666666667
320,21.333333333333332,-535.4666666666667,74.66666666666667
321,14.933333333333334,-533.3333333333334,70.4
322,23.466666666666665,-535.4666666666667,68.26666666666667
323,25.6,-537.6,72.53333333333333
324,21.333333333333332,-531.2,70.4
325,17.066666666666666,-535.4666666666667,74.66666666666667
326,21.333333333333332,-533.3333333333334,70.4
327,19.2,-537.6,70.4
328,23.466666666666665,-533.3333333333334,74.66666666666667
329,17.066666666666666,-531.2,74.66666666666667
330,19.2,-533.3333333333334,61.86666666666667
331,10.666666666666666,-529.0666666666666,66.13333333333333
332,19.2,-537.6,66.13333333333333
333,14.933333333333334,-539.7333333333333,64.0
334,12.8,-535.4666666666667,72.53333333333333
335,12.8,-531.2,74.66666666666667
336,14.933333333333334,-533.3333333333334,74.66666666666667
337,19.2,-537.6,68.26666666666667
338,14.933333333333334,-531.2,72.53333333333333
339,12.8,-535.4666666666667,74.66666666666667
340,17.066666666666666,-541.8666666666667,68.26666666666667
341,17.066666666666666,-531.2,70.4
342,14.933333333333334,-531.2,72.53333333333333
343,17.066666666666666,-537.6,70.4
344,12.8,-529.0666666666666,70.4
345,14.933333333333334,-529.0666666666666,76.8
346,17.066666666666666,-535.4666666666667,72.53333333333333
347,14.933333333333334,-539.7333333333333,72.53333333333333
348,19.2,-535.4666666666667,72.53333333333333
349,19.2,-535.4666666666667,74.66666666666667
350,19.2,-535.4666666666667,76.8
351,21.333333333333332,-533.3333333333334,76.8
352,17.066666666666666,-531.2,74.66666666666667
353,12.8,-535.4666666666667,76.8
354,12.8,-535.4666666666667,74.66666666666667
355,14.933333333333334,-531.2,72.53333333333333
356,12.8,-537.6,64.0
357,23.466666666666665,-533.3333333333334,70.4
358,14.933333333333334,-526.9333333333333,78.93333333333334
359,17.066666666666666,-529.0666666666666,81.06666666666666
360,14.933333333333334,-529.0666666666666,76.8
361,14.933333333333334,-535.4666666666667,68.26666666666667
362,19.2,-533.3333333333334,72.53333333333333
363,21.333333333333332,-533.3333333333334,66.13333333333333
364,17.066666666666666,-539.7333333333333,64.0
365,23.466666666666665,-537.6,66.13333333333333
366,12.8,-537.6,74.66666666666667
367,6.4,-537.6,68.26666666666667
368,14.933333333333334,-533.3333333333334,64.0
369,14.933333333333334,-537.6,68.26666666666667
370,17.066666666666666,-535.4666666666667,74.66666666666667
371,21.333333333333332,-531.2,83.2
372,17.066666666666666,-539.7333333333333,78.93333333333334
373,17.066666666666666,-535.4666666666667,70.4
374,12.8,-529.0666666666666,72.53333333333333
375,19.2,-531.2,76.8
376,14.933333333333334,-537.6,74.66666666666667
377,19.2,-535.4666666666667,76.8
378,14.933333333333334,-529.0666666666666,81.06666666666666
379,17.066666666666666,-531.2,72.53333333333333
380,17.066666666666666,-533.3333333333334,78.93333333333334
381,14.933333333333334,-533.3333333333334,78.93333333333334
382,14.933333333333334,-531.2,72.53333333333333
383,14.933333333333334,-537.6,74.66666666666667
384,17.066666666666666,-535.4666666666667,78.93333333333334
385,10.666666666666666,-533.3333333333334,72.53333333333333
386,17.066666666666666,-529.0666666666666,83.2
387,12.8,-531.2,72.53333333333333
388,12.8,-531.2,70.4
389,10.666666666666666,-531.2,70.4
390,10.666666666666666,-533.3333333333334,76.8
391,12.8,-537.6,72.53333333333333
392,21.333333333333332,-533.3333333333334,70.4
393,17.066666666666666,-533.3333333333334,76.8
394,14.933333333333334,-531.2,72.53333333333333
395,12.8,-529.0666666666666,76.8
396,19.2,-537.6,74.66666666666667
397,14.933333333333334,-535.4666666666667,78.93333333333334
398,12.8,-533.3333333333334,81.06666666666666
399,19.2,-537.6,72.53333333333333
400,14.933333333333334,-531.2,78.93333333333334
401,17.066666666666666,-539.7333333333333,81.06666666666666
402,19.2,-533.3333333333334,74.66666666666667
403,21.333333333333332,-533.3333333333334,78.93333333333334
404,12.8,-533.3333333333334,70.4
405,19.2,-539.7333333333333,74.66666666666667
406,17.066666666666666,-535.4666666666667,76.8
407,17.066666666666666,-544.0,74.66666666666667
408,10.666666666666666,-533.3333333333334,74.66666666666667
409,12.8,-535.4666666666667,76.8
410,14.933333333333334,-533.3333333333334,70.4
411,19.2,-533.3333333333334,74.66666666666667
412,10.666666666666666,-533.3333333333334,74.66666666666667
413,17.066666666666666,-537.6,74.66666666666667
414,17.066666666666666,-537.6,74.66666666666667
415,17.066666666666666,-537.6,74.66666666666667
416,12.8,-533.3333333333334,70.4
417,14.933333333333334,-535.4666666666667,78.93333333333334
418,17.066666666666666,-535.4666666666667,76.8
419,17.066666666666666,-533.3333333333334,81.06666666666666
420,14.933333333333334,-539.7333333333333,76.8
421,21.333333333333332,-537.6,74.66666666666667
422,14.933333333333334,-529.0666666666666,72.53333333333333
423,19.2,-529.0666666666666,76.8
424,17.066666666666666,-531.2,81.06666666666666
425,14.933333333333334,-531.2,78.93333333333334
426,25.6,-541.8666666666667,87.46666666666667
427,21.333333333333332,-537.6,83.2
428,19.2,-541.8666666666667,76.8
429,19.2,-535.4666666666667,74.66666666666667
430,19.2,-535.4666666666667,81.06666666666666
431,17.066666666666666,-533.3333333333334,76.8
432,23.466666666666665,-533.3333333333334,78.93333333333334
433,21.333333333333332,-539.7333333333333,78.93333333333334
434,19.2,-533.3333333333334,81.06666666666666
435,14.933333333333334,-529.0666666666666,78.93333333333334
436,19.2,-522.6666666666666,76.8
437,25.6,-533.3333333333334,83.2
438,19.2,-526.9333333333333,83.2
439,12.8,-531.2,83.2
440,14.933333333333334,-524.8,74.66666666666667
441,8.533333333333333,-529.0666666666666,76.8
442,25.6,-539.7333333333333,74.66666666666667
443,12.8,-526.9333333333333,81.06666666666666
444,14.933333333333334,-531.2,74.66666666666667
445,17.066666666666666,-535.4666666666667,81.06666666666666
446,10.666666666666666,-533.3333333333334,70.4
447,12.8,-529.0666666666666,78.93333333333334
448,21.333333333333332,-531.2,78.93333333333334
449,12.8,-533.3333333333334,89.6
450,14.933333333333334,-529.0666666666666,76.8
451,17.066666666666666,-529.0666666666666,76.8
452,14.933333333333334,-531.2,76.8
453,21.333333333333332,-529.0666666666666,81.06666666666666
454,19.2,-531.2,83.2
455,23.466666666666665,-535.4666666666667,85.33333333333333
456,17.066666666666666,-533.3333333333334,81.06666666666666
457,17.066666666666666,-533.3333333333334,81.06666666666666
458,14.933333333333334,-529.0666666666666,87.46666666666667
459,19.2,-535.4666666666667,76.8
460,19.2,-535.4666666666667,83.2
461,14.933333333333334,-533.3333333333334,76.8
462,21.333333333333332,-531.2,87.46666666666667
463,14.933333333333334,-529.0666666666666,81.06666666666666
464,19.2,-533.3333333333334,83.2
465,21.333333333333332,-529.0666666666666,81.06666666666666
466,19.2,-531.2,81.06666666666666
467,14.933333333333334,-531.2,81.06666666666666
468,12.8,-526.9333333333333,81.06666666666666
469,21.333333333333332,-531.2,87.46666666666667
470,12.8,-537.6,85.33333333333333
471,14.933333333333334,-535.4666666666667,76.8
472,21.333333333333332,-526.9333333333333,87.46666666666667
473,19.2,-539.7333333333333,83.2
474,12.8,-535.4666666666667,89.6
475,17.066666666666666,-537.6,81.06666666666666
476,19.2,-537.6,74.66666666666667
477,17.066666666666666,-533.3333333333334,89.6
478,19.2,-535.4666666666667,78.93333333333334
479,14.933333333333334,-531.2,85.33333333333333
480,14.933333333333334,-531.2,81.06666666666666
481,14.933333333333334,-533.3333333333334,83.2
482,14.933333333333334,-537.6,78.93333333333334
483,12.8,-529.0666666666666,83.2
484,14.933333333333334,-533.3333333333334,83.2
485,21.333333333333332,-533.3333333333334,83.2
486,14.933333333333334,-533.3333333333334,85.33333333333333
487,12.8,-526.9333333333333,83.2
488,12.8,-526.9333333333333,87.46666666666667
489,17.066666666666666,-524.8,85.33333333333333
490,19.2,-529.0666666666666,85.33333333333333
491,19.2,-529.0666666666666,91.73333333333333
492,17.066666666666666,-526.9333333333333,83.2
493,19.2,-522.6666666666666,83.2
494,17.066666666666666,-526.9333333333333,89.6
495,8.533333333333333,-529.0666666666666,89.6
496,27.733333333333334,-516.2666666666667,57.6
497,4.266666666666667,-535.4666666666667,89.6
498,12.8,-539.7333333333333,87.46666666666667
499,19.2,-526.9333333333333,87.46666666666667
500,12.8,-505.59999999999997,57.6
501,4.266666666666667,-529.0666666666666,74.66666666666667
502,17.066666666666666,-531.2,87.46666666666667
503,12.8,-531.2,83.2
504,17.066666666666666,-535.4666666666667,83.2
505,14.933333333333334,-533.3333333333334,91.73333333333333
506,14.933333333333334,-531.2,87.46666666666667
507,14.933333333333334,-533.3333333333334,76.8
508,12.8,-533.3333333333334,87.46666666666667
509,12.8,-529.0666666666666,81.06666666666666
510,12.8,-535.4666666666667,91.73333333333333
511,19.2,-539.7333333333333,89.6
512,12.8,-529.0666666666666,91.73333333333333
513,19.2,-531.2,85.33333333333333
514,6.4,-524.8,89.6
515,14.933333333333334,-531.2,91.73333333333333
516,12.8,-522.6666666666666,98.13333333333333
517,14.933333333333334,-533.3333333333334,87.46666666666667
518,19.2,-531.2,89.6
519,12.8,-535.4666666666667,93.86666666666666
520,12.8,-531.2,93.86666666666666
521,14.933333333333334,-539.7333333333333,87.46666666666667
522,12.8,-535.4666666666667,85.33333333333333
523,10.666666666666666,-533.3333333333334,87.46666666666667
524,14.933333333333334,-533.3333333333334,93.86666666666666
525,14.933333333333334,-533.3333333333334,85.33333333333333
526,10.666666666666666,-531.2,96.0
527,12.8,-529.0666666666666,89.6
528,12.8,-531.2,93.86666666666666
529,10.666666666666666,-533.3333333333334,89.6
530,14.933333333333334,-531.2,91.73333333333333
531,14.933333333333334,-529.0666666666666,98.13333333333333
532,14.933333333333334,-535.4666666666667,81.06666666666666
533,14.933333333333334,-533.3333333333334,87.46666666666667
534,19.2,-531.2,91.73333333333333
535,19.2,-535.4666666666667,96.0
536,12.8,-535.4666666666667,93.86666666666666
537,12.8,-533.3333333333334,87.46666666666667
538,8.533333333333333,-533.3333333333334,89.6
539,10.666666666666666,-531.2,96.0
540,10.666666666666666,-535.4666666666667,93.86666666666666
541,12.8,-541.8666666666667,87.46666666666667
542,17.066666666666666,-535.4666666666667,96.0
543,8.533333333333333,-533.3333333333334,89.6
544,10.666666666666666,-537.6,96.0
545,17.066666666666666,-533.3333333333334,96.0
546,10.666666666666666,-531.2,98.13333333333333
547,14.933333333333334,-529.0666666666666,93.86666666666666
548,14.933333333333334,-531.2,93.86666666666666
549,10.666666666666666,-526.9333333333333,98.13333333333333
550,17.066666666666666,-531.2,91.73333333333333
551,12.8,-531.2,96.0
552,12.8,-533.3333333333334,91.73333333333333
553,14.933333333333334,-535.4666666666667,93.86666666666666
554,10.666666666666666,-531.2,89.6
555,14.933333333333334,-531.2,93.86666666666666
556,17.066666666666666,-533.3333333333334,93.86666666666666
557,17.066666666666666,-529.0666666666666,98.13333333333333
558,17.066666666666666,-531.2,93.86666666666666
559,14.933333333333334,-531.2,89.6
560,12.8,-531.2,93.86666666666666
561,12.8,-529.0666666666666,93.86666666666666
562,12.8,-526.9333333333333,100.26666666666667
563,12.8,-529.0666666666666,93.86666666666666
564,12.8,-526.9333333333333,93.86666666666666
565,12.8,-533.3333333333334,96.0
566,8.533333333333333,-526.9333333333333,96.0
567,12.8,-531.2,87.46666666666667
568,8.533333333333333,-535.4666666666667,98.13333333333333
569,12.8,-531.2,96.0
570,6.4,-522.6666666666666,98.13333333333333
571,17.066666666666666,-524.8,96.0
572,17.066666666666666,-535.4666666666667,87.46666666666667
573,6.4,-524.8,91.73333333333333
574,8.533333333333333,-529.0666666666666,93.86666666666666
575,10.666666666666666,-526.9333333333333,89.6
576,8.533333333333333,-522.6666666666666,96.0
577,14.933333333333334,-529.0666666666666,96.0
578,14.933333333333334,-524.8,93.86666666666666
579,14.933333333333334,-533.3333333333334,96.0
580,8.533333333333333,-526.9333333333333,100.26666666666667
581,10.666666666666666,-524.8,98.13333333333333
582,14.933333333333334,-526.9333333333333,98.13333333333333
583,8.533333333333333,-522.6666666666666,93.86666666666666
584,14.933333333333334,-524.8,98.13333333333333
585,17.066666666666666,-531.2,96.0
586,12.8,-529.0666666666666,100.26666666666667
587,17.066666666666666,-526.9333333333333,93.86666666666666
588,17.066666666666666,-529.0666666666666,91.73333333333333
589,17.066666666666666,-520.5333333333333,96.0
590,10.666666666666666,-526.9333333333333,96.0
591,10.666666666666666,-526.9333333333333,91.73333333333333
592,14.933333333333334,-524.8,91.73333333333333
593,12.8,-529.0666666666666,98.13333333333333
594,14.933333333333334,-535.4666666666667,91.73333333333333
595,12.8,-524.8,85.33333333333333
596,12.8,-529.0666666666666,100.26666666666667
597,19.2,-531.2,96.0
598,21.333333333333332,-535.4666666666667,100.26666666666667
599,6.4,-529.0666666666666,98.13333333333333
600,12.8,-526.9333333333333,98.13333333333333
601,6.4,-531.2,98.13333333333333
602,10.666666666666666,-529.0666666666666,91.73333333333333
603,17.066666666666666,-522.6666666666666,106.66666666666667
604,8.533333333333333,-529.0666666666666,96.0
605,14.933333333333334,-529.0666666666666,91.73333333333333
606,12.8,-533.3333333333334,102.4
607,10.666666666666666,-526.9333333333333,98.13333333333333
608,17.066666666666666,-531.2,98.13333333333333
609,6.4,-526.9333333333333,93.86666666666666
610,10.666666666666666,-524.8,93.86666666666666
611,14.933333333333334,-526.9333333333333,98.13333333333333
612,12.8,-529.0666666666666,96.0
613,12.8,-529.0666666666666,100.26666666666667
614,14.933333333333334,-522.6666666666666,100.26666666666667
615,17.066666666666666,-529.0666666666666,93.86666666666666
616,17.066666666666666,-522.6666666666666,100.26666666666667
617,8.533333333333333,-522.6666666666666,93.86666666666666
618,12.8,-531.2,98.13333333333333
619,10.666666666666666,-526.9333333333333,102.4
620,10.666666666666666,-524.8,100.26666666666667
621,17.066666666666666,-524.8,93.86666666666666
622,12.8,-524.8,100.26666666666667
623,14.933333333333334,-526.9333333333333,96.0
624,2.1333333333333333,-522.6666666666666,85.33333333333333
625,8.533333333333333,-531.2,93.86666666666666
626,12.8,-529.0666666666666,102.4
627,10.666666666666666,-531.2,102.4
628,10.666666666666666,-533.3333333333334,96.0
629,8.533333333333333,-524.8,104.53333333333333
630,10.666666666666666,-526.9333333333333,100.26666666666667
631,10.666666666666666,-529.0666666666666,100.26666666666667
632,10.666666666666666,-524.8,93.86666666666666
633,17.066666666666666,-526.9333333333333,93.86666666666666
634,10.666666666666666,-526.9333333333333,98.13333333333333
635,8.533333333333333,-522.6666666666666,108.8
636,8.533333333333333,-535.4666666666667,96.0
637,10.666666666666666,-531.2,96.0
638,12.8,-526.9333333333333,93.86666666666666
639,14.933333333333334,-529.0666666666666,102.4
640,12.8,-537.6,102.4
641,12.8,-529.0666666666666,96.0
642,12.8,-526.9333333333333,102.4
643,14.933333333333334,-531.2,93.86666666666666
644,10.666666666666666,-529.0666666666666,100.26666666666667
645,10.666666666666666,-529.0666666666666,102.4
646,10.666666666666666,-529.0666666666666,102.4
647,6.4,-533.3333333333334,93.86666666666666
648,6.4,-531.2,93.86666666666666
649,12.8,-529.0666666666666,96.0
650,8.533333333333333,-531.2,100.26666666666667
651,6.4,-531.2,98.13333333333333
652,8.533333333333333,-526.9333333333333,100.26666666666667
653,6.4,-533.3333333333334,91.73333333333333
654,8.533333333333333,-524.8,100.26666666666667
655,6.4,-529.0666666666666,98.13333333333333
656,10.666666666666666,-529.0666666666666,91.73333333333333
657,10.666666666666666,-526.9333333333333,102.4
658,12.8,-531.2,102.4
659,10.666666666666666,-531.2,98.13333333333333
660,10.666666666666666,-522.6666666666666,98.13333333333333
661,10.666666666666666,-524.8,96.0
662,10.666666666666666,-529.0666666666666,89.6
663,10.666666666666666,-524.8,91.73333333333333
664,10.666666666666666,-524.8,93.86666666666666
665,12.8,-526.9333333333333,96.0
666,12.8,-529.0666666666666,98.13333333333333
667,10.666666666666666,-524.8,96.0
668,10.666666666666666,-531.2,100.26666666666667
669,10.666666666666666,-531.2,96.0
670,10.666666666666666,-535.4666666666667,91.73333333333333
671,12.8,-533.3333333333334,98.13333333333333
672,8.533333333333333,-535.4666666666667,98.13333333333333
673,4.266666666666667,-531.2,91.73333333333333
674,8.533333333333333,-533.3333333333334,98.13333333333333
675,8.533333333333333,-533.3333333333334,100.26666666666667
676,14.933333333333334,-537.6,93.86666666666666
677,8.533333333333333,-531.2,98.13333333333333
678,8.533333333333333,-524.8,89.6
679,14.933333333333334,-529.0666666666666,91.73333333333333
680,14.933333333333334,-535.4666666666667,91.73333333333333
681,17.066666666666666,-535.4666666666667,91.73333333333333
682,12.8,-533.3333333333334,100.26666666666667
683,6.4,-526.9333333333333,98.13333333333333
684,10.666666666666666,-535.4666666666667,102.4
685,12.8,-524.8,100.26666666666667
686,8.533333333333333,-526.9333333333333,106.66666666666667
687,12.8,-526.9333333333333,104.53333333333333
688,10.666666666666666,-529.0666666666666,104.53333333333333
689,17.066666666666666,-529.0666666666666,106.66666666666667
690,12.8,-526.9333333333333,100.26666666666667
691,10.666666666666666,-529.0666666666666,102.4
692,12.8,-537.6,102.4
693,8.533333333333333,-531.2,100.26666666666667
694,8.533333333333333,-535.4666666666667,108.8
695,10.666666666666666,-529.0666666666666,98.13333333333333
696,8.533333333333333,-533.3333333333334,102.4
697,10.666666666666666,-535.4666666666667,104.53333333333333
698,6.4,-531.2,104.53333333333333
699,10.666666666666666,-533.3333333333334,100.26666666666667
700,10.666666666666666,-531.2,100.26666666666667
701,10.666666666666666,-535.4666666666667,102.4
702,12.8,-529.0666666666666,108.8
703,4.266666666666667,-529.0666666666666,102.4
704,10.666666666666666,-529.0666666666666,113.06666666666666
705,8.533333333333333,-531.2,98.13333333333333
706,10.666666666666666,-526.9333333333333,108.8
707,8.533333333333333,-526.9333333333333,102.4
708,8.533333333333333,-520.5333333333333,98.13333333333333
709,19.2,-522.6666666666666,104.53333333333333
710,8.533333333333333,-522.6666666666666,98.13333333333333
711,8.533333333333333,-518.4,110.93333333333334
712,14.933333333333334,-524.8,93.86666666666666
713,10.666666666666666,-524.8,106.66666666666667
714,12.8,-520.5333333333333,91.73333333333333
715,14.933333333333334,-524.8,108.8
716,10.666666666666666,-520.5333333333333,104.53333333333333
717,12.8,-522.6666666666666,113.06666666666666
718,12.8,-526.9333333333333,108.8
719,10.666666666666666,-522.6666666666666,104.53333333333333
720,10.666666666666666,-526.9333333333333,113.06666666666666
721,17.066666666666666,-529.0666666666666,110.93333333333334
722,8.533333333333333,-524.8,102.4
723,6.4,-526.9333333333333,106.66666666666667
724,8.533333333333333,-529.0666666666666,108.8
725,12.8,-524.8,102.4
726,10.666666666666666,-529.0666666666666,102.4
727,8.533333333333333,-524.8,108.8
728,6.4,-524.8,100.26666666666667
729,12.8,-526.9333333333333,104.53333333333333
730,17.066666666666666,-529.0666666666666,110.93333333333334
731,8.533333333333333,-531.2,113.06666666666666
732,6.4,-526.9333333333333,108.8
733,8.533333333333333,-524.8,113.06666666666666
734,4.266666666666667,-524.8,113.06666666666666
735,12.8,-520.5333333333333,113.06666666666666
736,6.4,-522.6666666666666,119.46666666666667
737,10.666666666666666,-522.6666666666666,106.66666666666667
738,8.533333333333333,-526.9333333333333,113.06666666666666
739,12.8,-522.6666666666666,119.46666666666667
740,8.533333333333333,-520.5333333333333,115.2
741,10.666666666666666,-518.4,121.6
742,10.666666666666666,-526.9333333333333,108.8
743,6.4,-524.8,117.33333333333333
744,10.666666666666666,-522.6666666666666,106.66666666666667
745,10.666666666666666,-524.8,108.8
746,6.4,-522.6666666666666,110.93333333333334
747,8.533333333333333,-522.6666666666666,110.93333333333334
748,4.266666666666667,-520.5333333333333,119.46666666666667
749,6.4,-529.0666666666666,117.33333333333333
750,12.8,-522.6666666666666,108.8
751,14.933333333333334,-524.8,119.46666666666667
752,10.666666666666666,-520.5333333333333,119.46666666666667
753,12.8,-524.8,121.6
754,10.666666666666666,-520.5333333333333,117.33333333333333
755,8.533333333333333,-522.6666666666666,125.86666666666666
756,6.4,-520.5333333333333,113.06666666666666
757,2.1333333333333333,-522.6666666666666,123.73333333333333
758,8.533333333333333,-520.5333333333333,119.46666666666667
759,6.4,-522.6666666666666,125.86666666666666
760,6.4,-522.6666666666666,130.13333333333333
761,10.666666666666666,-522.6666666666666,121.6
762,10.666666666666666,-526.9333333333333,123.73333333333333
763,6.4,-522.6666666666666,115.2
764,10.666666666666666,-522.6666666666666,119.46666666666667
765,6.4,-526.9333333333333,113.06666666666666
766,10.666666666666666,-529.0666666666666,125.86666666666666
767,8.533333333333333,-529.0666666666666,121.6
768,4.266666666666667,-520.5333333333333,115.2
769,2.1333333333333333,-526.9333333333333,117.33333333333333
770,14.933333333333334,-524.8,128.0
771,10.666666666666666,-531.2,128.0
772,8.533333333333333,-531.2,123.73333333333333
773,10.666666666666666,-529.0666666666666,121.6
774,10.666666666666666,-531.2,128.0
775,6.4,-529.0666666666666,123.73333333333333
776,10.666666666666666,-522.6666666666666,121.6
777,8.533333333333333,-529.0666666666666,125.86666666666666
778,10.666666666666666,-520.5333333333333,125.86666666666666
779,10.666666666666666,-524.8,125.86666666666666
780,8.533333333333333,-524.8,119.46666666666667
781,6.4,-522.6666666666666,128.0
782,10.666666666666666,-520.5333333333333,125.86666666666666
783,6.4,-522.6666666666666,130.13333333333333
784,2.1333333333333333,-522.6666666666666,132.26666666666665
785,8.533333333333333,-520.5333333333333,142.93333333333334
786,4.266666666666667,-516.2666666666667,130.13333333333333
787,12.8,-516.2666666666667,140.8
788,8.533333333333333,-512.0,140.8
789,10.666666666666666,-514.1333333333333,134.4
790,8.533333333333333,-512.0,136.53333333333333
791,6.4,-518.4,136.53333333333333
792,10.666666666666666,-512.0,132.26666666666665
793,4.266666666666667,-514.1333333333333,132.26666666666665
794,4.266666666666667,-512.0,138.66666666666666
795,2.1333333333333333,-514.1333333333333,136.53333333333333
796,4.266666666666667,-514.1333333333333,142.93333333333334
797,4.266666666666667,-512.0,136.53333333333333
798,4.266666666666667,-509.8666666666667,140.8
799,2.1333333333333333,-514.1333333333333,145.06666666666666
800,6.4,-516.2666666666667,136.53333333333333
801,8.533333333333333,-522.6666666666666,140.8
802,8.533333333333333,-520.5333333333333,147.2
803,12.8,-520.5333333333333,138.66666666666666
804,10.666666666666666,-518.4,140.8
805,12.8,-518.4,138.66666666666666
806,10.666666666666666,-522.6666666666666,134.4
807,8.533333333333333,-526.9333333333333,140.8
808,8.533333333333333,-518.4,142.93333333333334
809,4.266666666666667,-520.5333333333333,147.2
810,4.266666666666667,-512.0,140.8
811,4.266666666666667,-514.1333333333333,145.06666666666666
812,6.4,-520.5333333333333,147.2
813,6.4,-514.1333333333333,149.33333333333334
814,8.533333333333333,-518.4,147.2
815,4.266666666666667,-518.4,147.2
816,8.533333333333333,-518.4,145.06666666666666
817,4.266666666666667,-514.1333333333333,151.46666666666667
818,8.533333333333333,-512.0,153.6
819,6.4,-516.2666666666667,153.6
820,10.666666666666666,-512.0,151.46666666666667
821,8.533333333333333,-512.0,149.33333333333334
822,8.533333333333333,-516.2666666666667,149.33333333333334
823,8.533333333333333,-509.8666666666667,155.73333333333332
824,6.4,-505.59999999999997,151.46666666666667
825,6.4,-514.1333333333333,151.46666666666667
826,10.666666666666666,-512.0,157.86666666666667
827,8.533333333333333,-516.2666666666667,157.86666666666667
828,8.533333333333333,-516.2666666666667,160.0
829,4.266666666666667,-518.4,155.73333333333332
830,2.1333333333333333,-512.0,153.6
831,6.4,-514.1333333333333,157.86666666666667
832,14.933333333333334,-505.59999999999997,157.86666666666667
833,4.266666666666667,-503.46666666666664,160.0
834,8.533333333333333,-501.3333333333333,151.46666666666667
835,12.8,-505.59999999999997,153.6
836,8.533333333333333,-501.3333333333333,155.73333333333332
837,4.266666666666667,-499.2,155.73333333333332
838,4.266666666666667,-501.3333333333333,162.13333333333333
839,8.533333333333333,-501.3333333333333,160.0
840,8.533333333333333,-497.06666666666666,155.73333333333332
841,14.933333333333334,-505.59999999999997,164.26666666666665
842,14.933333333333334,-501.3333333333333,166.4
843,14.933333333333334,-509.8666666666667,172.8
844,-6.4,-520.5333333333333,179.2
845,8.533333333333333,-509.8666666666667,170.66666666666666
846,8.533333333333333,-507.73333333333335,168.53333333333333
847,6.4,-509.8666666666667,174.93333333333334
848,4.266666666666667,-505.59999999999997,172.8
849,6.4,-512.0,181.33333333333334
850,6.4,-509.8666666666667,174.93333333333334
851,10.666666666666666,-507.73333333333335,181.33333333333334
852,6.4,-503.46666666666664,179.2
853,8.533333333333333,-505.59999999999997,179.2
854,4.266666666666667,-509.8666666666667,170.66666666666666
855,8.533333333333333,-505.59999999999997,168.53333333333333
856,8.533333333333333,-503.46666666666664,174.93333333333334
857,2.1333333333333333,-501.3333333333333,179.2
858,4.266666666666667,-505.59999999999997,179.2
859,6.4,-497.06666666666666,172.8
860,0.0,-492.8,183.46666666666667
861,4.266666666666667,-497.06666666666666,181.33333333333334
862,0.0,-499.2,181.33333333333334
863,0.0,-488.5333333333333,183.46666666666667
864,6.4,-490.6666666666667,187.73333333333332
865,6.4,-490.6666666666667,192.0
866,0.0,-497.06666666666666,189.86666666666667
867,6.4,-490.6666666666667,187.73333333333332
868,14.933333333333334,-503.46666666666664,189.86666666666667
869,6.4,-503.46666666666664,194.13333333333333
870,8.533333333333333,-497.06666666666666,192.0
871,6.4,-494.93333333333334,187.73333333333332
872,6.4,-492.8,189.86666666666667
873,4.266666666666667,-490.6666666666667,189.86666666666667
874,12.8,-488.5333333333333,196.26666666666665
875,6.4,-494.93333333333334,192.0
876,12.8,-497.06666666666666,198.4
877,4.266666666666667,-484.26666666666665,189.86666666666667
878,6.4,-488.5333333333333,189.86666666666667
879,10.666666666666666,-490.6666666666667,187.73333333333332
880,6.4,-486.4,192.0
881,8.533333333333333,-488.5333333333333,198.4
882,8.533333333333333,-494.93333333333334,194.13333333333333
883,14.933333333333334,-494.93333333333334,196.26666666666665
884,6.4,-490.6666666666667,198.4
885,6.4,-490.6666666666667,209.06666666666666
886,6.4,-490.6666666666667,200.53333333333333
887,8.533333333333333,-486.4,198.4
888,14.933333333333334,-488.5333333333333,213.33333333333334
889,8.533333333333333,-482.1333333333333,198.4
890,4.266666666666667,-486.4,202.66666666666666
891,12.8,-484.26666666666665,204.8
892,8.533333333333333,-477.8666666666667,200.53333333333333
893,8.533333333333333,-486.4,200.53333333333333
894,8.533333333333333,-477.8666666666667,206.93333333333334
895,14.933333333333334,-480.0,202.66666666666666
896,14.933333333333334,-480.0,209.06666666666666
897,10.666666666666666,-484.26666666666665,219.73333333333332
898,8.533333333333333,-477.8666666666667,215.46666666666667
899,8.533333333333333,-477.8666666666667,217.6
900,10.666666666666666,-482.1333333333333,211.2
901,6.4,-484.26666666666665,215.46666666666667
902,12.8,-480.0,217.6
903,4.266666666666667,-482.1333333333333,221.86666666666667
904,10.666666666666666,-482.1333333333333,213.33333333333334
905,8.533333333333333,-480.0,215.46666666666667
906,4.266666666666667,-486.4,219.73333333333332
907,10.666666666666666,-490.6666666666667,217.6
908,12.8,-486.4,215.46666666666667
909,10.666666666666666,-490.6666666666667,213.33333333333334
910,8.533333333333333,-484.26666666666665,217.6
911,4.266666666666667,-486.4,224.0
912,2.1333333333333333,-486.4,228.26666666666665
913,12.8,-475.73333333333335,228.26666666666665
914,10.666666666666666,-482.1333333333333,224.0
915,10.666666666666666,-484.26666666666665,230.4
916,10.666666666666666,-477.8666666666667,228.26666666666665
917,8.533333333333333,-477.8666666666667,241.06666666666666
918,8.533333333333333,-475.73333333333335,236.79999999999998
919,10.666666666666666,-477.8666666666667,234.66666666666666
920,4.266666666666667,-471.46666666666664,241.06666666666666
921,6.4,-477.8666666666667,241.06666666666666
922,10.666666666666666,-477.8666666666667,241.06666666666666
923,6.4,-475.73333333333335,236.79999999999998
924,8.533333333333333,-471.46666666666664,243.2
925,4.266666666666667,-469.3333333333333,236.79999999999998
926,6.4,-467.2,245.33333333333334
927,6.4,-467.2,243.2
928,6.4,-460.8,249.6
929,12.8,-462.93333333333334,251.73333333333332
930,10.666666666666666,-469.3333333333333,245.33333333333334
931,10.666666666666666,-462.93333333333334,247.46666666666667
932,12.8,-467.2,256.0
933,8.533333333333333,-467.2,256.0
934,8.533333333333333,-460.8,256.0
935,8.533333333333333,-462.93333333333334,251.73333333333332
936,14.933333333333334,-458.6666666666667,251.73333333333332
937,4.266666666666667,-454.4,258.1333333333333
938,10.666666666666666,-458.6666666666667,264.5333333333333
939,10.666666666666666,-454.4,262.4
940,10.666666666666666,-456.5333333333333,258.1333333333333
941,10.666666666666666,-452.26666666666665,253.86666666666667
942,8.533333333333333,-439.46666666666664,256.0
943,4.266666666666667,-445.8666666666667,260.26666666666665
944,4.266666666666667,-439.46666666666664,256.0
945,14.933333333333334,-437.3333333333333,253.86666666666667
946,8.533333333333333,-433.06666666666666,256.0
947,12.8,-435.2,256.0
948,6.4,-439.46666666666664,264.5333333333333
949,17.066666666666666,-433.06666666666666,260.26666666666665
950,10.666666666666666,-437.3333333333333,270.93333333333334
951,10.666666666666666,-435.2,270.93333333333334
952,6.4,-430.93333333333334,275.2
953,17.066666666666666,-435.2,266.6666666666667
954,8.533333333333333,-439.46666666666664,268.8
955,6.4,-435.2,270.93333333333334
956,12.8,-437.3333333333333,275.2
957,8.533333333333333,-439.46666666666664,283.73333333333335
958,12.8,-428.8,279.46666666666664
959,10.666666666666666,-426.6666666666667,281.6
960,10.666666666666666,-428.8,285.8666666666667
961,14.933333333333334,-420.26666666666665,288.0
962,10.666666666666666,-422.4,290.1333333333333
963,10.666666666666666,-418.1333333333333,285.8666666666667
964,12.8,-416.0,292.26666666666665
965,12.8,-411.73333333333335,292.26666666666665
966,8.533333333333333,-413.8666666666667,288.0
967,8.533333333333333,-416.0,292.26666666666665
968,17.066666666666666,-416.0,290.1333333333333
969,12.8,-418.1333333333333,294.4
970,14.933333333333334,-418.1333333333333,292.26666666666665
971,19.2,-422.4,290.1333333333333
972,12.8,-424.5333333333333,294.4
973,10.666666666666666,-424.5333333333333,290.1333333333333
974,19.2,-428.8,296.5333333333333
975,14.933333333333334,-428.8,290.1333333333333
976,14.933333333333334,-424.5333333333333,300.8
977,14.933333333333334,-435.2,305.06666666666666
978,17.066666666666666,-428.8,294.4
979,19.2,-422.4,298.6666666666667
980,25.6,-430.93333333333334,300.8
981,21.333333333333332,-422.4,296.5333333333333
982,19.2,-416.0,300.8
983,29.866666666666667,-418.1333333333333,309.3333333333333
984,29.866666666666667,-416.0,298.6666666666667
985,19.2,-405.3333333333333,305.06666666666666
986,23.466666666666665,-405.3333333333333,313.6
987,25.6,-407.46666666666664,315.73333333333335
988,23.466666666666665,-394.6666666666667,311.46666666666664
989,19.2,-396.8,320.0
990,17.066666666666666,-390.4,320.0
991,21.333333333333332,-394.6666666666667,313.6
992,23.466666666666665,-384.0,322.1333333333333
993,17.066666666666666,-388.26666666666665,320.0
994,19.2,-392.5333333333333,324.26666666666665
995,14.933333333333334,-392.5333333333333,313.6
996,12.8,-388.26666666666665,315.73333333333335
997,10.666666666666666,-386.1333333333333,320.0
998,12.8,-390.4,326.4
999,4.266666666666667,-386.1333333333333,317.8666666666667
1000,12.8,-392.5333333333333,322.1333333333333
1001,0.0,-390.4,326.4
1002,6.4,-392.5333333333333,324.26666666666665
1003,6.4,-388.26666666666665,326.4
1004,2.1333333333333333,-384.0,322.1333333333333
1005,8.533333333333333,-388.26666666666665,324.26666666666665
1006,6.4,-394.6666666666667,326.4
1007,6.4,-384.0,328.5333333333333
1008,12.8,-390.4,337.06666666666666
1009,10.666666666666666,-384.0,332.8
1010,19.2,-386.1333333333333,334.93333333333334
1011,25.6,-390.4,337.06666666666666
1012,25.6,-386.1333333333333,332.8
1013,32.0,-379.73333333333335,334.93333333333334
1014,29.866666666666667,-377.6,330.6666666666667
1015,34.13333333333333,-379.73333333333335,330.6666666666667
1016,36.266666666666666,-377.6,337.06666666666666
1017,40.53333333333333,-375.46666666666664,339.2
1018,38.4,-373.3333333333333,334.93333333333334
1019,44.8,-377.6,337.06666666666666
1020,51.2,-373.3333333333333,334.93333333333334
1021,44.8,-358.4,332.8
1022,42.666666666666664,-358.4,322.1333333333333
1023,46.93333333333333,-362.6666666666667,330.6666666666667
1024,46.93333333333333,-347.73333333333335,330.6666666666667
1025,44.8,-349.8666666666667,326.4
1026,49.06666666666666,-345.6,326.4
1027,36.266666666666666,-322.1333333333333,337.06666666666666
1028,42.666666666666664,-328.5333333333333,343.46666666666664
1029,44.8,-324.26666666666665,345.6
1030,44.8,-317.8666666666667,343.46666666666664
1031,40.53333333333333,-317.8666666666667,345.6
1032,44.8,-313.6,349.8666666666667
1033,42.666666666666664,-313.6,352.0
1034,40.53333333333333,-317.8666666666667,356.26666666666665
1035,40.53333333333333,-317.8666666666667,362.6666666666667
1036,46.93333333333333,-320.0,362.6666666666667
1037,36.266666666666666,-317.8666666666667,373.3333333333333
1038,38.4,-324.26666666666665,366.93333333333334
1039,23.466666666666665,-317.8666666666667,366.93333333333334
1040,29.866666666666667,-324.26666666666665,360.5333333333333
1041,17.066666666666666,-326.4,356.26666666666665
1042,17.066666666666666,-324.26666666666665,356.26666666666665
1043,12.8,-324.26666666666665,358.4
1044,12.8,-317.8666666666667,362.6666666666667
1045,6.4,-311.46666666666664,358.4
1046,6.4,-300.8,362.6666666666667
1047,12.8,-309.3333333333333,364.8
1048,4.266666666666667,-298.6666666666667,364.8
1049,6.4,-292.26666666666665,356.26666666666665
1050,0.0,-285.8666666666667,354.1333333333333
1051,-2.1333333333333333,-279.46666666666664,339.2
1052,-6.4,-281.6,358.4
1053,2.1333333333333333,-279.46666666666664,347.73333333333335
1054,0.0,-277.3333333333333,345.6
1055,2.1333333333333333,-277.3333333333333,337.06666666666666
1056,-4.266666666666667,-275.2,332.8
1057,4.266666666666667,-279.46666666666664,326.4
1058,2.1333333333333333,-277.3333333333333,330.6666666666667
1059,2.1333333333333333,-273.06666666666666,332.8
1060,6.4,-275.2,326.4
1061,4.266666666666667,-270.93333333333334,324.26666666666665
1062,4.266666666666667,-273.06666666666666,322.1333333333333
1063,12.8,-270.93333333333334,315.73333333333335
1064,6.4,-270.93333333333334,317.8666666666667
1065,12.8,-262.4,315.73333333333335
1066,14.933333333333334,-270.93333333333334,317.8666666666667
1067,12.8,-266.6666666666667,315.73333333333335
1068,8.533333333333333,-264.5333333333333,309.3333333333333
1069,6.4,-266.6666666666667,320.0
1070,4.266666666666667,-253.86666666666667,313.6
1071,2.1333333333333333,-251.73333333333332,317.8666666666667
1072,-6.4,-247.46666666666667,313.6
1073,-10.666666666666666,-238.93333333333334,315.73333333333335
1074,-14.933333333333334,-232.53333333333333,322.1333333333333
1075,-23.466666666666665,-228.26666666666665,326.4
1076,-25.6,-217.6,326.4
1077,-23.466666666666665,-206.93333333333334,330.6666666666667
1078,-32.0,-196.26666666666665,330.6666666666667
1079,-38.4,-181.33333333333334,334.93333333333334
1080,-38.4,-168.53333333333333,341.3333333333333
1081,-29.866666666666667,-166.4,341.3333333333333
1082,-32.0,-147.2,341.3333333333333
1083,-34.13333333333333,-138.66666666666666,345.6
1084,-38.4,-125.86666666666666,356.26666666666665
1085,-32.0,-110.93333333333334,356.26666666666665
1086,-40.53333333333333,-100.26666666666667,364.8
1087,-38.4,-93.86666666666666,373.3333333333333
1088,-29.866666666666667,-87.46666666666667,369.06666666666666
1089,-38.4,-74.66666666666667,379.73333333333335
1090,-38.4,-61.86666666666667,377.6
1091,-34.13333333333333,-44.8,386.1333333333333
1092,-27.733333333333334,-36.266666666666666,386.1333333333333
1093,-34.13333333333333,-27.733333333333334,377.6
1094,-34.13333333333333,-38.4,379.73333333333335
1095,-25.6,-4.266666666666667,362.6666666666667
1096,-27.733333333333334,8.533333333333333,354.1333333333333
1097,-36.266666666666666,-2.1333333333333333,362.6666666666667
1098,-23.466666666666665,8.533333333333333,334.93333333333334
1099,-25.6,25.6,373.3333333333333
1100,-32.0,10.666666666666666,366.93333333333334
1101,-36.266666666666666,21.333333333333332,352.0
1102,-38.4,32.0,347.73333333333335
1103,-49.06666666666666,42.666666666666664,339.2
1104,-49.06666666666666,53.333333333333336,315.73333333333335
1105,-38.4,70.4,309.3333333333333
1106,-57.6,83.2,292.26666666666665
1107,-53.333333333333336,96.0,279.46666666666664
1108,-61.86666666666667,117.33333333333333,236.79999999999998
1109,-61.86666666666667,121.6,217.6
1110,-55.46666666666667,125.86666666666666,183.46666666666667
1111,-55.46666666666667,132.26666666666665,155.73333333333332
1112,-46.93333333333333,125.86666666666666,113.06666666666666
1113,-49.06666666666666,128.0,59.733333333333334
1114,-44.8,121.6,27.733333333333334
1115,-46.93333333333333,117.33333333333333,-4.266666666666667
1116,-42.666666666666664,108.8,-34.13333333333333
1117,-25.6,96.0,-74.66666666666667
1118,76.8,89.6,-136.53333333333333
1119,55.46666666666667,68.26666666666667,-70.4
1120,32.0,59.733333333333334,-74.66666666666667
1121,-29.866666666666667,57.6,-106.66666666666667
1122,12.8,36.266666666666666,-83.2
1123,38.4,38.4,-46.93333333333333
1124,34.13333333333333,21.333333333333332,36.266666666666666
1125,89.6,17.066666666666666,93.86666666666666
1126,217.6,12.8,247.46666666666667
1127,253.86666666666667,40.53333333333333,396.8
1128,224.0,70.4,546.1333333333333
1129,166.4,110.93333333333334,721.0666666666666
1130,106.66666666666667,172.8,919.4666666666667
1131,106.66666666666667,262.4,1098.6666666666667
1132,132.26666666666665,352.0,1226.6666666666667
1133,189.86666666666667,477.8666666666667,1418.6666666666667
1134,245.33333333333334,608.0,1589.3333333333333
1135,219.73333333333332,740.2666666666667,1715.2
1136,200.53333333333333,834.1333333333333,1770.6666666666667
1137,247.46666666666667,891.7333333333333,1779.2
1138,256.0,919.4666666666667,1693.8666666666666
1139,270.93333333333334,951.4666666666667,1527.4666666666667
1140,232.53333333333333,947.1999999999999,1467.7333333333333
1141,164.26666666666665,885.3333333333334,1433.6
1142,134.4,874.6666666666666,1373.8666666666666
1143,145.06666666666666,753.0666666666666,1429.3333333333333
1144,166.4,742.4,1344.0
1145,64.0,695.4666666666667,1275.7333333333333
1146,-17.066666666666666,684.8,1196.8
1147,-81.06666666666666,663.4666666666667,1139.2
1148,-213.33333333333334,661.3333333333334,1075.2
1149,-230.4,608.0,1032.5333333333333
1150,-302.93333333333334,546.1333333333333,974.9333333333333
1151,-384.0,471.46666666666664,930.1333333333333
1152,-467.2,411.73333333333335,859.7333333333333
1153,-509.8666666666667,352.0,791.4666666666667
1154,-561.0666666666666,296.5333333333333,725.3333333333334
1155,-541.8666666666667,224.0,635.7333333333333
1156,-435.2,130.13333333333333,554.6666666666666
1157,-302.93333333333334,38.4,499.2
1158,-170.66666666666666,-23.466666666666665,424.5333333333333
1159,-72.53333333333333,-89.6,366.93333333333334
1160,-12.8,-147.2,339.2
1161,42.666666666666664,-192.0,311.46666666666664
1162,91.73333333333333,-215.46666666666667,313.6
1163,115.2,-234.66666666666666,317.8666666666667
1164,174.93333333333334,-230.4,343.46666666666664
1165,177.06666666666666,-206.93333333333334,364.8
1166,142.93333333333334,-155.73333333333332,386.1333333333333
1167,81.06666666666666,-110.93333333333334,411.73333333333335
1168,115.2,-42.666666666666664,426.6666666666667
1169,100.26666666666667,53.333333333333336,433.06666666666666
1170,38.4,147.2,420.26666666666665
1171,53.333333333333336,217.6,392.5333333333333
1172,81.06666666666666,292.26666666666665,362.6666666666667
1173,87.46666666666667,354.1333333333333,339.2
1174,74.66666666666667,403.2,317.8666666666667
1175,44.8,422.4,309.3333333333333
1176,23.466666666666665,443.73333333333335,294.4
1177,4.266666666666667,450.1333333333333,288.0
1178,-44.8,462.93333333333334,262.4
1179,-57.6,490.6666666666667,228.26666666666665
1180,-72.53333333333333,499.2,206.93333333333334
1181,-68.26666666666667,501.3333333333333,213.33333333333334
1182,-70.4,492.8,243.2
1183,-74.66666666666667,467.2,264.5333333333333
1184,-70.4,450.1333333333333,279.46666666666664
1185,-70.4,420.26666666666665,294.4
1186,-59.733333333333334,390.4,326.4
1187,-51.2,349.8666666666667,352.0
1188,-46.93333333333333,311.46666666666664,388.26666666666665
1189,-42.666666666666664,277.3333333333333,411.73333333333335
1190,-32.0,241.06666666666666,441.59999999999997
1191,-25.6,230.4,456.5333333333333
1192,-23.466666666666665,209.06666666666666,486.4
1193,-6.4,183.46666666666667,492.8
1194,21.333333333333332,185.6,501.3333333333333
1195,44.8,172.8,509.8666666666667
1196,36.266666666666666,172.8,520.5333333333333
1197,46.93333333333333,164.26666666666665,516.2666666666667
1198,57.6,160.0,522.6666666666666
1199,49.06666666666666,160.0,520.5333333333333
1200,64.0,149.33333333333334,509.8666666666667
1201,78.93333333333334,149.33333333333334,516.2666666666667
1202,72.53333333333333,157.86666666666667,490.6666666666667
1203,64.0,138.66666666666666,512.0
1204,66.13333333333333,130.13333333333333,492.8
1205,68.26666666666667,130.13333333333333,482.1333333333333
1206,72.53333333333333,132.26666666666665,488.5333333333333
1207,76.8,132.26666666666665,507.73333333333335
1208,81.06666666666666,121.6,516.2666666666667
1209,96.0,117.33333333333333,509.8666666666667
1210,89.6,113.06666666666666,509.8666666666667
1211,96.0,119.46666666666667,497.06666666666666
1212,93.86666666666666,117.33333333333333,509.8666666666667
1213,100.26666666666667,119.46666666666667,501.3333333333333
1214,66.13333333333333,108.8,437.3333333333333
1215,160.0,104.53333333333333,482.1333333333333
1216,145.06666666666666,119.46666666666667,512.0
1217,117.33333333333333,130.13333333333333,531.2
1218,98.13333333333333,123.73333333333333,552.5333333333333
1219,117.33333333333333,104.53333333333333,558.9333333333333
1220,132.26666666666665,85.33333333333333,571.7333333333333
1221,142.93333333333334,72.53333333333333,571.7333333333333
1222,138.66666666666666,64.0,571.7333333333333
1223,138.66666666666666,78.93333333333334,576.0
1224,130.13333333333333,87.46666666666667,571.7333333333333
1225,110.93333333333334,76.8,580.2666666666667
1226,72.53333333333333,81.06666666666666,576.0
1227,64.0,87.46666666666667,573.8666666666667
1228,46.93333333333333,96.0,563.2
1229,19.2,113.06666666666666,563.2
1230,0.0,96.0,578.1333333333333
1231,-19.2,108.8,580.2666666666667
1232,-29.866666666666667,100.26666666666667,571.7333333333333
1233,-32.0,108.8,571.7333333333333
1234,-23.466666666666665,102.4,554.6666666666666
1235,-34.13333333333333,98.13333333333333,531.2
1236,-44.8,102.4,531.2
1237,-25.6,87.46666666666667,507.73333333333335
1238,-25.6,89.6,482.1333333333333
1239,-19.2,87.46666666666667,460.8
1240,-10.666666666666666,85.33333333333333,450.1333333333333
1241,2.1333333333333333,78.93333333333334,450.1333333333333
1242,6.4,74.66666666666667,445.8666666666667
1243,-12.8,68.26666666666667,450.1333333333333
1244,-6.4,59.733333333333334,460.8
1245,-17.066666666666666,46.93333333333333,484.26666666666665
1246,-10.666666666666666,42.666666666666664,486.4
1247,-6.4,27.733333333333334,499.2
1248,-14.933333333333334,27.733333333333334,518.4
1249,-23.466666666666665,14.933333333333334,531.2
1250,-21.333333333333332,8.533333333333333,529.0666666666666
1251,-25.6,8.533333333333333,507.73333333333335
1252,-55.46666666666667,-8.533333333333333,518.4
1253,-25.6,-19.2,501.3333333333333
1254,-93.86666666666666,-32.0,512.0
1255,-194.13333333333333,-113.06666666666666,556.8
1256,-162.13333333333333,-100.26666666666667,505.59999999999997
1257,-177.06666666666666,-128.0,526.9333333333333
1258,-185.6,-130.13333333333333,516.2666666666667
1259,-172.8,-125.86666666666666,501.3333333333333
1260,-181.33333333333334,-145.06666666666666,494.93333333333334
1261,-177.06666666666666,-140.8,497.06666666666666
1262,-160.0,-177.06666666666666,488.5333333333333
1263,-142.93333333333334,-130.13333333333333,484.26666666666665
1264,-121.6,-128.0,433.06666666666666
1265,-115.2,-123.73333333333333,424.5333333333333
1266,-100.26666666666667,-119.46666666666667,422.4
1267,-51.2,-91.73333333333333,405.3333333333333
1268,-128.0,-117.33333333333333,441.59999999999997
1269,-91.73333333333333,-115.2,433.06666666666666
1270,-44.8,-104.53333333333333,418.1333333333333
1271,-85.33333333333333,-98.13333333333333,452.26666666666665
1272,-83.2,-83.2,467.2
1273,-93.86666666666666,-72.53333333333333,480.0
1274,-61.86666666666667,-55.46666666666667,482.1333333333333
1275,-72.53333333333333,-40.53333333333333,494.93333333333334
1276,-93.86666666666666,-19.2,507.73333333333335
1277,-74.66666666666667,-6.4,526.9333333333333
1278,-96.0,17.066666666666666,550.4
1279,-132.26666666666665,32.0,556.8
1280,-106.66666666666667,46.93333333333333,558.9333333333333
1281,-98.13333333333333,74.66666666666667,548.2666666666667
1282,-110.93333333333334,104.53333333333333,548.2666666666667
1283,-91.73333333333333,125.86666666666666,537.6
1284,-93.86666666666666,142.93333333333334,524.8
1285,-83.2,153.6,505.59999999999997
1286,-70.4,170.66666666666666,499.2
1287,-83.2,187.73333333333332,488.5333333333333
1288,-68.26666666666667,187.73333333333332,488.5333333333333
1289,-64.0,194.13333333333333,482.1333333333333
1290,-76.8,202.66666666666666,473.59999999999997
1291,-72.53333333333333,215.46666666666667,482.1333333333333
1292,-68.26666666666667,200.53333333333333,473.59999999999997
1293,-53.333333333333336,187.73333333333332,460.8
1294,-44.8,187.73333333333332,467.2
1295,-44.8,177.06666666666666,471.46666666666664
1296,-34.13333333333333,166.4,482.1333333333333
1297,-19.2,162.13333333333333,497.06666666666666
1298,-6.4,153.6,512.0
1299,-2.1333333333333333,136.53333333333333,526.9333333333333
1300,4.266666666666667,138.66666666666666,529.0666666666666
1301,10.666666666666666,136.53333333333333,526.9333333333333
1302,12.8,142.93333333333334,541.8666666666667
1303,4.266666666666667,138.66666666666666,552.5333333333333
1304,0.0,142.93333333333334,554.6666666666666
1305,-14.933333333333334,147.2,558.9333333333333
1306,-14.933333333333334,147.2,565.3333333333334
1307,-23.466666666666665,149.33333333333334,558.9333333333333
1308,-23.466666666666665,151.46666666666667,561.0666666666666
1309,-19.2,160.0,550.4
1310,-12.8,151.46666666666667,552.5333333333333
1311,-23.466666666666665,151.46666666666667,546.1333333333333
1312,-19.2,138.66666666666666,541.8666666666667
1313,-8.533333333333333,134.4,535.4666666666667
1314,-10.666666666666666,123.73333333333333,546.1333333333333
1315,-19.2,104.53333333333333,554.6666666666666
1316,-14.933333333333334,89.6,552.5333333333333
1317,-23.466666666666665,68.26666666666667,550.4
1318,-29.866666666666667,38.4,548.2666666666667
1319,-36.266666666666666,14.933333333333334,552.5333333333333
1320,-38.4,-6.4,537.6
1321,-57.6,-23.466666666666665,526.9333333333333
1322,-53.333333333333336,-44.8,507.73333333333335
1323,-40.53333333333333,-64.0,499.2
1324,-42.666666666666664,-74.66666666666667,492.8
1325,-44.8,-70.4,484.26666666666665
1326,-36.266666666666666,-44.8,456.5333333333333
1327,-36.266666666666666,-14.933333333333334,450.1333333333333
1328,-42.666666666666664,4.266666666666667,456.5333333333333
1329,-49.06666666666666,23.466666666666665,460.8
1330,-55.46666666666667,44.8,482.1333333333333
1331,-51.2,42.666666666666664,486.4
1332,-55.46666666666667,55.46666666666667,492.8
1333,-49.06666666666666,53.333333333333336,492.8
1334,-55.46666666666667,61.86666666666667,499.2
1335,-51.2,61.86666666666667,503.46666666666664
1336,-51.2,57.6,501.3333333333333
1337,-53.333333333333336,59.733333333333334,492.8
1338,-59.733333333333334,55.46666666666667,509.8666666666667
1339,-64.0,51.2,501.3333333333333
1340,-61.86666666666667,44.8,520.5333333333333
1341,-61.86666666666667,40.53333333333333,522.6666666666666
1342,-61.86666666666667,32.0,522.6666666666666
1343,-53.333333333333336,29.866666666666667,520.5333333333333
1344,-66.13333333333333,21.333333333333332,526.9333333333333
1345,-61.86666666666667,19.2,531.2
1346,-59.733333333333334,14.933333333333334,526.9333333333333
1347,-53.333333333333336,8.533333333333333,535.4666666666667
1348,-55.46666666666667,2.1333333333333333,529.0666666666666
1349,-53.333333333333336,4.266666666666667,529.0666666666666
1350,-55.46666666666667,0.0,529.0666666666666
1351,-55.46666666666667,-4.266666666666667,531.2
1352,-59.733333333333334,-2.1333333333333333,529.0666666666666
1353,-61.86666666666667,2.1333333333333333,531.2
1354,-51.2,2.1333333333333333,522.6666666666666
1355,-55.46666666666667,2.1333333333333333,522.6666666666666
1356,-55.46666666666667,8.533333333333333,505.59999999999997
1357,-55.46666666666667,17.066666666666666,505.59999999999997
1358,-53.333333333333336,14.933333333333334,507.73333333333335
1359,-53.333333333333336,14.933333333333334,499.2
1360,-49.06666666666666,17.066666666666666,505.59999999999997
1361,-51.2,14.933333333333334,492.8
1362,-57.6,23.466666666666665,486.4
1363,-44.8,21.333333333333332,492.8
1364,-51.2,29.866666666666667,497.06666666666666
1365,-55.46666666666667,34.13333333333333,490.6666666666667
1366,-55.46666666666667,36.266666666666666,492.8
1367,-51.2,29.866666666666667,497.06666666666666
1368,-53.333333333333336,40.53333333333333,503.46666666666664
1369,-49.06666666666666,42.666666666666664,499.2
1370,-49.06666666666666,38.4,492.8
1371,-55.46666666666667,40.53333333333333,494.93333333333334
1372,-44.8,40.53333333333333,503.46666666666664
1373,-49.06666666666666,38.4,503.46666666666664
1374,-44.8,34.13333333333333,505.59999999999997
1375,-55.46666666666667,40.53333333333333,509.8666666666667
1376,-44.8,32.0,516.2666666666667
1377,-49.06666666666666,34.13333333333333,518.4
1378,-49.06666666666666,29.866666666666667,514.1333333333333
1379,-46.93333333333333,23.466666666666665,516.2666666666667
1380,-49.06666666666666,29.866666666666667,516.2666666666667
1381,-44.8,19.2,518.4
1382,-49.06666666666666,21.333333333333332,522.6666666666666
1383,-42.666666666666664,21.333333333333332,526.9333333333333
1384,-44.8,17.066666666666666,514.1333333333333
1385,-42.666666666666664,19.2,516.2666666666667
1386,-44.8,19.2,516.2666666666667
1387,-44.8,21.333333333333332,522.6666666666666
1388,-36.266666666666666,14.933333333333334,522.6666666666666
1389,-32.0,21.333333333333332,505.59999999999997
1390,-34.13333333333333,14.933333333333334,518.4
1391,-27.733333333333334,23.466666666666665,509.8666666666667
1392,-36.266666666666666,25.6,512.0
1393,-27.733333333333334,25.6,514.1333333333333
1394,-34.13333333333333,25.6,507.73333333333335
1395,-38.4,29.866666666666667,509.8666666666667
1396,-38.4,32.0,507.73333333333335
1397,-38.4,27.733333333333334,514.1333333333333
1398,-40.53333333333333,29.866666666666667,505.59999999999997
1399,-40.53333333333333,32.0,501.3333333333333
1400,-40.53333333333333,27.733333333333334,507.73333333333335
1401,-42.666666666666664,34.13333333333333,505.59999999999997
1402,-49.06666666666666,27.733333333333334,501.3333333333333
1403,-44.8,34.13333333333333,505.59999999999997
1404,-46.93333333333333,34.13333333333333,507.73333333333335
1405,-51.2,29.866666666666667,503.46666666666664
1406,-49.06666666666666,25.6,503.46666666666664
1407,-53.333333333333336,25.6,512.0
1408,-49.06666666666666,29.866666666666667,516.2666666666667
1409,-61.86666666666667,25.6,507.73333333333335
1410,-53.333333333333336,25.6,512.0
1411,-49.06666666666666,14.933333333333334,516.2666666666667
1412,-51.2,23.466666666666665,512.0
1413,-53.333333333333336,19.2,512.0
1414,-51.2,27.733333333333334,520.5333333333333
1415,-49.06666666666666,21.333333333333332,509.8666666666667
1416,-51.2,19.2,512.0
1417,-44.8,25.6,512.0
1418,-42.666666666666664,19.2,516.2666666666667
1419,-49.06666666666666,25.6,505.59999999999997
1420,-53.333333333333336,23.466666666666665,509.8666666666667
1421,-49.06666666666666,23.466666666666665,518.4
1422,-40.53333333333333,19.2,514.1333333333333
1423,-53.333333333333336,25.6,505.59999999999997
1424,-49.06666666666666,23.466666666666665,503.46666666666664
1425,-46.93333333333333,23.466666666666665,501.3333333333333
1426,-51.2,21.333333333333332,509.8666666666667
1427,-51.2,23.466666666666665,501.3333333333333
1428,-51.2,19.2,514.1333333333333
1429,-53.333333333333336,10.666666666666666,509.8666666666667
1430,-51.2,14.933333333333334,512.0
1431,-59.733333333333334,17.066666666666666,507.73333333333335
1432,-55.46666666666667,17.066666666666666,514.1333333333333
1433,-49.06666666666666,6.4,505.59999999999997
1434,-46.93333333333333,8.533333333333333,501.3333333333333
1435,-42.666666666666664,12.8,514.1333333333333
1436,-49.06666666666666,19.2,503.46666666666664
1437,-44.8,19.2,503.46666666666664
1438,-38.4,21.333333333333332,505.59999999999997
1439,-42.666666666666664,19.2,505.59999999999997
1440,-36.266666666666666,12.8,512.0
1441,-40.53333333333333,21.333333333333332,507.73333333333335
1442,-40.53333333333333,19.2,499.2
1443,-40.53333333333333,23.466666666666665,505.59999999999997
1444,-40.53333333333333,23.466666666666665,512.0
1445,-32.0,23.466666666666665,512.0
1446,-49.06666666666666,27.733333333333334,514.1333333333333
1447,-42.666666666666664,36.266666666666666,505.59999999999997
1448,-44.8,32.0,509.8666666666667
1449,-36.266666666666666,29.866666666666667,516.2666666666667
1450,-42.666666666666664,34.13333333333333,516.2666666666667
1451,-46.93333333333333,36.266666666666666,516.2666666666667
1452,-42.666666666666664,38.4,507.73333333333335
1453,-46.93333333333333,32.0,514.1333333333333
1454,-44.8,34.13333333333333,514.1333333333333
1455,-46.93333333333333,38.4,509.8666666666667
1456,-44.8,29.866666666666667,514.1333333333333
1457,-44.8,29.866666666666667,516.2666666666667
1458,-55.46666666666667,36.266666666666666,507.73333333333335
1459,-51.2,23.466666666666665,512.0
1460,-53.333333333333336,29.866666666666667,514.1333333333333
1461,-51.2,23.466666666666665,512.0
1462,-53.333333333333336,25.6,505.59999999999997
1463,-51.2,19.2,516.2666666666667
1464,-51.2,25.6,509.8666666666667
1465,-49.06666666666666,21.333333333333332,503.46666666666664
1466,-53.333333333333336,17.066666666666666,499.2
1467,-49.06666666666666,19.2,503.46666666666664
1468,-46.93333333333333,21.333333333333332,505.59999999999997
1469,-51.2,17.066666666666666,507.73333333333335
1470,-42.666666666666664,17.066666666666666,507.73333333333335
1471,-49.06666666666666,19.2,503.46666666666664
1472,-44.8,14.933333333333334,507.73333333333335
1473,-46.93333333333333,14.933333333333334,503.46666666666664
1474,-51.2,14.933333333333334,505.59999999999997
1475,-49.06666666666666,12.8,512.0
1476,-49.06666666666666,12.8,516.2666666666667
1477,-49.06666666666666,4.266666666666667,505.59999999999997
1478,-44.8,10.666666666666666,516.2666666666667
1479,-42.666666666666664,8.533333333333333,522.6666666666666
1480,-46.93333333333333,17.066666666666666,516.2666666666667
1481,-49.06666666666666,17.066666666666666,509.8666666666667
1482,-51.2,14.933333333333334,512.0
1483,-46.93333333333333,14.933333333333334,512.0
1484,-44.8,14.933333333333334,512.0
1485,-44.8,19.2,512.0
1486,-42.666666666666664,25.6,505.59999999999997
1487,-44.8,32.0,514.1333333333333
1488,-44.8,27.733333333333334,509.8666666666667
1489,-40.53333333333333,27.733333333333334,509.8666666666667
1490,-49.06666666666666,25.6,507.73333333333335
1491,-44.8,27.733333333333334,507.73333333333335
1492,-42.666666666666664,36.266666666666666,499.2
1493,-44.8,27.733333333333334,507.73333333333335
1494,-51.2,32.0,512.0
1495,-53.333333333333336,32.0,505.59999999999997
1496,-53.333333333333336,29.866666666666667,501.3333333333333
1497,-51.2,32.0,503.46666666666664
1498,-49.06666666666666,38.4,507.73333333333335
1499,-49.06666666666666,32.0,501.3333333333333
1500,-46.93333333333333,29.866666666666667,492.8
1501,-46.93333333333333,36.266666666666666,499.2
1502,-53.333333333333336,38.4,507.73333333333335
1503,-51.2,27.733333333333334,509.8666666666667
1504,-49.06666666666666,29.866666666666667,501.3333333333333
1505,-44.8,27.733333333333334,507.73333333333335
1506,-51.2,25.6,514.1333333333333
1507,-44.8,23.466666666666665,509.8666666666667
1508,-44.8,25.6,507.73333333333335
1509,-46.93333333333333,14.933333333333334,514.1333333333333
1510,-46.93333333333333,21.333333333333332,514.1333333333333
1511,-51.2,21.333333333333332,516.2666666666667
1512,-44.8,12.8,514.1333333333333
1513,-44.8,19.2,512.0
1514,-49.06666666666666,19.2,516.2666666666667
1515,-53.333333333333336,14.933333333333334,516.2666666666667
1516,-44.8,14.933333333333334,520.5333333333333
1517,-53.333333333333336,14.933333333333334,512.0
1518,-49.06666666666666,12.8,512.0
1519,-49.06666666666666,19.2,516.2666666666667
1520,-49.06666666666666,12.8,516.2666666666667
1521,-57.6,21.333333333333332,526.9333333333333
1522,-55.46666666666667,25.6,516.2666666666667
1523,-46.93333333333333,21.333333333333332,518.4
1524,-49.06666666666666,25.6,516.2666666666667
1525,-57.6,27.733333333333334,509.8666666666667
1526,-51.2,27.733333333333334,512.0
1527,-53.333333333333336,25.6,512.0
1528,-59.733333333333334,34.13333333333333,516.2666666666667
1529,-57.6,32.0,512.0
1530,-55.46666666666667,32.0,501.3333333333333
1531,-51.2,29.866666666666667,505.59999999999997
1532,-51.2,27.733333333333334,503.46666666666664
1533,-44.8,27.733333333333334,509.8666666666667
1534,-44.8,25.6,507.73333333333335
1535,-40.53333333333333,27.733333333333334,503.46666666666664
1536,-49.06666666666666,25.6,512.0
1537,-40.53333333333333,21.333333333333332,503.46666666666664
1538,-46.93333333333333,27.733333333333334,503.46666666666664
1539,-42.666666666666664,27.733333333333334,509.8666666666667
1540,-49.06666666666666,29.866666666666667,499.2
1541,-44.8,23.466666666666665,499.2
1542,-38.4,17.066666666666666,501.3333333333333
1543,-40.53333333333333,23.466666666666665,499.2
1544,-44.8,27.733333333333334,501.3333333333333
1545,-42.666666666666664,32.0,503.46666666666664
1546,-40.53333333333333,23.466666666666665,497.06666666666666
1547,-44.8,23.466666666666665,503.46666666666664
1548,-44.8,25.6,505.59999999999997
1549,-44.8,23.466666666666665,503.46666666666664
1550,-46.93333333333333,25.6,509.8666666666667
1551,-42.666666666666664,25.6,505.59999999999997
1552,-42.666666666666664,25.6,507.73333333333335
1553,-44.8,32.0,505.59999999999997
1554,-46.93333333333333,27.733333333333334,507.73333333333335
1555,-51.2,29.866666666666667,514.1333333333333
1556,-44.8,29.866666666666667,512.0
1557,-44.8,29.866666666666667,512.0
1558,-51.2,27.733333333333334,512.0
1559,-51.2,34.13333333333333,512.0
1560,-51.2,29.866666666666667,512.0
1561,-49.06666666666666,32.0,516.2666666666667
1562,-49.06666666666666,29.866666666666667,507.73333333333335
1563,-46.93333333333333,32.0,512.0
1564,-55.46666666666667,38.4,514.1333333333333
1565,-46.93333333333333,27.733333333333334,512.0
1566,-49.06666666666666,34.13333333333333,507.73333333333335
1567,-49.06666666666666,27.733333333333334,507.73333333333335
1568,-44.8,27.733333333333334,512.0
1569,-49.06666666666666,32.0,520.5333333333333
1570,-51.2,27.733333333333334,509.8666666666667
1571,-53.333333333333336,34.13333333333333,509.8666666666667
1572,-46.93333333333333,32.0,509.8666666666667
1573,-53.333333333333336,23.466666666666665,514.1333333333333
1574,-55.46666666666667,23.466666666666665,514.1333333333333
1575,-57.6,23.466666666666665,514.1333333333333
1576,-55.46666666666667,27.733333333333334,507.73333333333335
1577,-55.46666666666667,27.733333333333334,509.8666666666667
1578,-46.93333333333333,21.333333333333332,507.73333333333335
1579,-51.2,25.6,516.2666666666667
1580,-55.46666666666667,32.0,512.0
1581,-53.333333333333336,25.6,509.8666666666667
1582,-53.333333333333336,25.6,505.59999999999997
1583,-49.06666666666666,27.733333333333334,499.2
1584,-49.06666666666666,27.733333333333334,503.46666666666664
1585,-55.46666666666667,32.0,499.2
1586,-53.333333333333336,32.0,503.46666666666664
1587,-53.333333333333336,36.266666666666666,501.3333333333333
1588,-46.93333333333333,34.13333333333333,494.93333333333334
1589,-53.333333333333336,36.266666666666666,499.2
1590,-51.2,32.0,505.59999999999997
1591,-51.2,32.0,505.59999999999997
1592,-53.333333333333336,42.666666666666664,505.59999999999997
1593,-57.6,34.13333333333333,505.59999999999997
1594,-55.46666666666667,38.4,507.73333333333335
1595,-49.06666666666666,29.866666666666667,509.8666666666667
1596,-46.93333333333333,34.13333333333333,509.8666666666667
1597,-51.2,36.266666666666666,509.8666666666667
1598,-51.2,36.266666666666666,507.73333333333335
1599,-51.2,36.266666666666666,509.8666666666667
1600,-53.333333333333336,44.8,505.59999999999997
1601,-51.2,36.266666666666666,507.73333333333335
1602,-55.46666666666667,42.666666666666664,518.4
1603,-59.733333333333334,38.4,505.59999999999997
1604,-53.333333333333336,34.13333333333333,520.5333333333333
1605,-51.2,32.0,516.2666666666667
1606,-51.2,32.0,501.3333333333333
1607,-46.93333333333333,27.733333333333334,514.1333333333333
1608,-53.333333333333336,27.733333333333334,516.2666666666667
1609,-51.2,36.266666666666666,514.1333333333333
1610,-44.8,19.2,514.1333333333333
1611,-57.6,25.6,512.0
1612,-59.733333333333334,27.733333333333334,514.1333333333333
1613,-55.46666666666667,27.733333333333334,509.8666666666667
1614,-57.6,29.866666666666667,514.1333333333333
1615,-51.2,27.733333333333334,505.59999999999997
1616,-51.2,21.333333333333332,512.0
1617,-57.6,29.866666666666667,509.8666666666667
1618,-46.93333333333333,34.13333333333333,512.0
1619,-51.2,32.0,512.0
1620,-51.2,32.0,512.0
1621,-49.06666666666666,32.0,512.0
1622,-46.93333333333333,38.4,501.3333333333333
1623,-49.06666666666666,34.13333333333333,509.8666666666667
1624,-53.333333333333336,36.266666666666666,518.4
1625,-53.333333333333336,34.13333333333333,512.0
1626,-57.6,40.53333333333333,507.73333333333335
1627,-49.06666666666666,44.8,507.73333333333335
1628,-49.06666666666666,36.266666666666666,507.73333333333335
1629,-49.06666666666666,38.4,512.0
1630,-51.2,38.4,509.8666666666667
1631,-49.06666666666666,40.53333333333333,514.1333333333333
1632,-51.2,38.4,518.4
1633,-53.333333333333336,40.53333333333333,518.4
1634,-53.333333333333336,40.53333333333333,507.73333333333335
1635,-53.333333333333336,34.13333333333333,509.8666666666667
1636,-55.46666666666667,38.4,507.73333333333335
1637,-53.333333333333336,40.53333333333333,509.8666666666667
1638,-53.333333333333336,38.4,499.2
1639,-49.06666666666666,38.4,509.8666666666667
1640,-51.2,36.266666666666666,518.4
1641,-53.333333333333336,42.666666666666664,516.2666666666667
1642,-51.2,36.266666666666666,507.73333333333335
1643,-51.2,36.266666666666666,512.0
1644,-51.2,38.4,507.73333333333335
1645,-51.2,32.0,509.8666666666667
1646,-51.2,36.266666666666666,514.1333333333333
1647,-51.2,32.0,505.59999999999997
1648,-55.46666666666667,34.13333333333333,507.73333333333335
1649,-51.2,44.8,505.59999999999997
1650,-57.6,40.53333333333333,512.0
1651,-55.46666666666667,40.53333333333333,518.4
1652,-55.46666666666667,42.666666666666664,512.0
1653,-57.6,38.4,512.0
1654,-59.733333333333334,38.4,507.73333333333335
1655,-55.46666666666667,38.4,509.8666666666667
1656,-59.733333333333334,44.8,514.1333333333333
1657,-55.46666666666667,34.13333333333333,514.1333333333333
1658,-55.46666666666667,40.53333333333333,518.4
1659,-55.46666666666667,34.13333333333333,507.73333333333335
1660,-51.2,34.13333333333333,514.1333333333333
1661,-53.333333333333336,34.13333333333333,509.8666666666667
1662,-59.733333333333334,38.4,524.8
1663,-57.6,38.4,509.8666666666667
1664,-59.733333333333334,44.8,505.59999999999997
1665,-57.6,36.266666666666666,512.0
1666,-55.46666666666667,29.866666666666667,520.5333333333333
1667,-57.6,36.266666666666666,512.0
1668,-57.6,38.4,507.73333333333335
1669,-57.6,34.13333333333333,514.1333333333333
1670,-55.46666666666667,34.13333333333333,509.8666666666667
1671,-89.6,32.0,507.73333333333335
1672,-74.66666666666667,36.266666666666666,522.6666666666666
1673,-64.0,27.733333333333334,503.46666666666664
1674,-59.733333333333334,27.733333333333334,539.7333333333333
1675,-61.86666666666667,21.333333333333332,535.4666666666667
1676,-72.53333333333333,17.066666666666666,505.59999999999997
1677,-59.733333333333334,46.93333333333333,520.5333333333333
1678,-46.93333333333333,53.333333333333336,514.1333333333333
1679,-59.733333333333334,36.266666666666666,503.46666666666664
1680,-34.13333333333333,38.4,497.06666666666666
1681,-59.733333333333334,36.266666666666666,507.73333333333335
1682,-59.733333333333334,40.53333333333333,514.1333333333333
1683,-61.86666666666667,38.4,505.59999999999997
1684,-57.6,40.53333333333333,507.73333333333335
1685,-51.2,36.266666666666666,505.59999999999997
1686,-57.6,38.4,507.73333333333335
1687,-53.333333333333336,34.13333333333333,516.2666666666667
1688,-55.46666666666667,40.53333333333333,512.0
1689,-55.46666666666667,40.53333333333333,518.4
1690,-55.46666666666667,38.4,516.2666666666667
1691,-53.333333333333336,36.266666666666666,509.8666666666667
1692,-49.06666666666666,36.266666666666666,520.5333333333333
1693,-53.333333333333336,32.0,512.0
1694,-53.333333333333336,36.266666666666666,509.8666666666667
1695,-46.93333333333333,29.866666666666667,516.2666666666667
1696,-57.6,29.866666666666667,516.2666666666667
1697,-57.6,38.4,518.4
1698,-51.2,25.6,516.2666666666667
1699,-53.333333333333336,32.0,512.0
1700,-55.46666666666667,27.733333333333334,507.73333333333335
1701,-59.733333333333334,29.866666666666667,509.8666666666667
1702,-53.333333333333336,25.6,505.59999999999997
1703,-51.2,29.866666666666667,503.46666666666664
1704,-51.2,32.0,507.73333333333335
1705,-46.93333333333333,27.733333333333334,505.59999999999997
1706,-53.333333333333336,27.733333333333334,505.59999999999997
1707,-57.6,29.866666666666667,501.3333333333333
1708,-57.6,32.0,505.59999999999997
1709,-53.333333333333336,36.266666666666666,507.73333333333335
1710,-55.46666666666667,36.266666666666666,501.3333333333333
1711,-57.6,38.4,512.0
1712,-57.6,36.266666666666666,509.8666666666667
1713,-53.333333333333336,38.4,497.06666666666666
1714,-57.6,34.13333333333333,509.8666666666667
1715,-55.46666666666667,34.13333333333333,509.8666666666667
1716,-46.93333333333333,34.13333333333333,509.8666666666667
1717,-53.333333333333336,34.13333333333333,509.8666666666667
1718,-53.333333333333336,34.13333333333333,512.0
1719,-55.46666666666667,38.4,509.8666666666667
1720,-55.46666666666667,36.266666666666666,512.0
1721,-59.733333333333334,38.4,512.0
1722,-57.6,38.4,516.2666666666667
1723,-53.333333333333336,34.13333333333333,514.1333333333333
1724,-49.06666666666666,34.13333333333333,509.8666666666667
1725,-55.46666666666667,32.0,512.0
1726,-53.333333333333336,32.0,514.1333333333333
1727,-55.46666666666667,38.4,512.0
1728,-61.86666666666667,34.13333333333333,505.59999999999997
1729,-57.6,34.13333333333333,507.73333333333335
1730,-53.333333333333336,32.0,518.4
1731,-55.46666666666667,27.733333333333334,512.0
1732,-57.6,23.466666666666665,509.8666666666667
1733,-55.46666666666667,27.733333333333334,514.1333333333333
1734,-55.46666666666667,23.466666666666665,507.73333333333335
1735,-57.6,23.466666666666665,509.8666666666667
1736,-55.46666666666667,38.4,501.3333333333333
1737,-53.333333333333336,29.866666666666667,503.46666666666664
1738,-53.333333333333336,23.466666666666665,516.2666666666667
1739,-55.46666666666667,29.866666666666667,507.73333333333335
1740,-55.46666666666667,25.6,509.8666666666667
1741,-55.46666666666667,32.0,516.2666666666667
1742,-44.8,32.0,509.8666666666667
1743,-46.93333333333333,27.733333333333334,507.73333333333335
1744,-51.2,27.733333333333334,509.8666666666667
1745,-53.333333333333336,32.0,516.2666666666667
1746,-49.06666666666666,23.466666666666665,507.73333333333335
1747,-49.06666666666666,32.0,505.59999999999997
1748,-51.2,29.866666666666667,507.73333333333335
1749,-51.2,32.0,516.2666666666667
1750,-51.2,23.466666666666665,509.8666666666667
1751,-51.2,29.866666666666667,512.0
1752,-49.06666666666666,25.6,503.46666666666664
1753,-51.2,32.0,503.46666666666664
1754,-53.333333333333336,23.466666666666665,507.73333333333335
1755,-51.2,23.466666666666665,509.8666666666667
1756,-53.333333333333336,23.466666666666665,501.3333333333333
1757,-55.46666666666667,27.733333333333334,514.1333333333333
1758,-53.333333333333336,25.6,505.59999999999997
1759,-51.2,29.866666666666667,512.0
1760,-53.333333333333336,27.733333333333334,514.1333333333333
1761,-57.6,34.13333333333333,512.0
1762,-46.93333333333333,25.6,518.4
1763,-57.6,29.866666666666667,507.73333333333335
1764,-51.2,25.6,514.1333333333333
1765,-53.333333333333336,23.466666666666665,505.59999999999997
1766,-53.333333333333336,25.6,514.1333333333333
1767,-51.2,25.6,524.8
1768,-51.2,23.466666666666665,509.8666666666667
1769,-44.8,23.466666666666665,507.73333333333335
1770,-55.46666666666667,27.733333333333334,509.8666666666667
1771,-53.333333333333336,25.6,512.0
1772,-49.06666666666666,17.066666666666666,501.3333333333333
1773,-51.2,23.466666666666665,507.73333333333335
1774,-51.2,25.6,509.8666666666667
1775,-46.93333333333333,23.466666666666665,503.46666666666664
1776,-53.333333333333336,27.733333333333334,512.0
1777,-55.46666666666667,27.733333333333334,514.1333333333333
1778,-55.46666666666667,32.0,509.8666666666667
1779,-53.333333333333336,25.6,514.1333333333333
1780,-44.8,21.333333333333332,514.1333333333333
1781,-46.93333333333333,23.466666666666665,507.73333333333335
1782,-55.46666666666667,25.6,509.8666666666667
1783,-49.06666666666666,23.466666666666665,516.2666666666667
1784,-57.6,25.6,507.73333333333335
1785,-49.06666666666666,21.333333333333332,507.73333333333335
1786,-53.333333333333336,21.333333333333332,516.2666666666667
1787,-51.2,19.2,503.46666666666664
1788,-49.06666666666666,21.333333333333332,505.59999999999997
1789,-49.06666666666666,19.2,505.59999999999997
1790,-51.2,21.333333333333332,507.73333333333335
1791,-55.46666666666667,27.733333333333334,512.0
1792,-49.06666666666666,21.333333333333332,507.73333333333335
1793,-53.333333333333336,19.2,509.8666666666667
1794,-53.333333333333336,19.2,507.73333333333335
1795,-40.53333333333333,21.333333333333332,505.59999999999997
1796,-53.333333333333336,19.2,516.2666666666667
1797,-55.46666666666667,27.733333333333334,505.59999999999997
1798,-51.2,23.466666666666665,501.3333333333333
1799,-51.2,23.466666666666665,505.59999999999997
1800,-55.46666666666667,23.466666666666665,509.8666666666667
1801,-53.333333333333336,25.6,503.46666666666664
1802,-53.333333333333336,21.333333333333332,505.59999999999997
1803,-49.06666666666666,21.333333333333332,516.2666666666667
1804,-51.2,23.466666666666665,507.73333333333335
1805,-53.333333333333336,19.2,501.3333333333333
1806,-49.06666666666666,19.2,514.1333333333333
1807,-49.06666666666666,21.333333333333332,509.8666666666667
1808,-49.06666666666666,21.333333333333332,501.3333333333333
1809,-51.2,12.8,509.8666666666667
1810,-53.333333333333336,21.333333333333332,514.1333333333333
1811,-49.06666666666666,21.333333333333332,514.1333333333333
1812,-51.2,21.333333333333332,509.8666666666667
1813,-51.2,23.466666666666665,512.0
1814,-42.666666666666664,23.466666666666665,507.73333333333335
1815,-55.46666666666667,21.333333333333332,514.1333333333333
1816,-49.06666666666666,21.333333333333332,509.8666666666667
1817,-46.93333333333333,19.2,505.59999999999997
1818,-51.2,21.333333333333332,509.8666666666667
1819,-49.06666666666666,21.333333333333332,520.5333333333333
1820,-49.06666666666666,23.466666666666665,509.8666666666667
1821,-46.93333333333333,17.066666666666666,516.2666666666667
1822,-44.8,17.066666666666666,501.3333333333333
1823,-46.93333333333333,12.8,507.73333333333335
1824,-55.46666666666667,17.066666666666666,507.73333333333335
1825,-53.333333333333336,14.933333333333334,507.73333333333335
1826,-53.333333333333336,19.2,512.0
1827,-51.2,23.466666666666665,507.73333333333335
1828,-59.733333333333334,27.733333333333334,512.0
1829,-53.333333333333336,17.066666666666666,518.4
1830,-53.333333333333336,21.333333333333332,501.3333333333333
1831,-55.46666666666667,19.2,512.0
1832,-55.46666666666667,14.933333333333334,509.8666666666667
1833,-53.333333333333336,17.066666666666666,505.59999999999997
1834,-55.46666666666667,21.333333333333332,499.2
1835,-51.2,19.2,503.46666666666664
1836,-46.93333333333333,17.066666666666666,503.46666666666664
1837,-53.333333333333336,23.466666666666665,505.59999999999997
1838,-51.2,21.333333333333332,507.73333333333335
1839,-53.333333333333336,23.466666666666665,503.46666666666664
1840,-53.333333333333336,19.2,503.46666666666664
1841,-53.333333333333336,19.2,507.73333333333335
1842,-53.333333333333336,23.466666666666665,505.59999999999997
1843,-51.2,23.466666666666665,509.8666666666667
1844,-53.333333333333336,21.333333333333332,507.73333333333335
1845,-51.2,19.2,507.73333333333335
1846,-44.8,21.333333333333332,507.73333333333335
1847,-55.46666666666667,29.866666666666667,516.2666666666667
1848,-51.2,27.733333333333334,514.1333333333333
1849,-46.93333333333333,21.333333333333332,514.1333333333333
1850,-57.6,21.333333333333332,503.46666666666664
1851,-49.06666666666666,23.466666666666665,514.1333333333333
1852,-51.2,23.466666666666665,512.0
1853,-46.93333333333333,25.6,514.1333333333333
1854,-51.2,25.6,514.1333333333333
1855,-53.333333333333336,21.333333333333332,522.6666666666666
1856,-53.333333333333336,23.466666666666665,514.1333333333333
1857,-51.2,19.2,516.2666666666667
1858,-55.46666666666667,19.2,507.73333333333335
1859,-55.46666666666667,21.333333333333332,509.8666666666667
1860,-55.46666666666667,21.333333333333332,505.59999999999997
1861,-49.06666666666666,19.2,509.8666666666667
1862,-49.06666666666666,12.8,514.1333333333333
1863,-44.8,14.933333333333334,499.2
1864,-53.333333333333336,23.466666666666665,509.8666666666667
1865,-49.06666666666666,19.2,507.73333333333335
1866,-55.46666666666667,29.866666666666667,509.8666666666667
1867,-51.2,14.933333333333334,512.0
1868,-49.06666666666666,14.933333333333334,501.3333333333333
1869,-49.06666666666666,19.2,505.59999999999997
1870,-51.2,17.066666666666666,509.8666666666667
1871,-55.46666666666667,23.466666666666665,509.8666666666667
1872,-49.06666666666666,21.333333333333332,499.2
1873,-51.2,19.2,512.0
1874,-57.6,25.6,512.0
1875,-49.06666666666666,23.466666666666665,509.8666666666667
1876,-49.06666666666666,25.6,516.2666666666667
1877,-51.2,21.333333333333332,516.2666666666667
1878,-55.46666666666667,25.6,503.46666666666664
1879,-53.333333333333336,23.466666666666665,503.46666666666664
1880,-53.333333333333336,25.6,509.8666666666667
1881,-46.93333333333333,17.066666666666666,501.3333333333333
1882,-49.06666666666666,19.2,505.59999999999997
1883,-53.333333333333336,27.733333333333334,514.1333333333333
1884,-53.333333333333336,21.333333333333332,512.0
1885,-53.333333333333336,25.6,509.8666666666667
1886,-51.2,25.6,514.1333333333333
1887,-49.06666666666666,19.2,516.2666666666667
1888,-49.06666666666666,17.066666666666666,509.8666666666667
1889,-59.733333333333334,29.866666666666667,509.8666666666667
1890,-49.06666666666666,23.466666666666665,507.73333333333335
1891,-49.06666666666666,27.733333333333334,512.0
1892,-51.2,23.466666666666665,505.59999999999997
1893,-53.333333333333336,27.733333333333334,514.1333333333333
1894,-51.2,19.2,509.8666666666667
1895,-57.6,25.6,509.8666666666667
1896,-57.6,29.866666666666667,507.73333333333335
1897,-51.2,17.066666666666666,509.8666666666667
1898,-46.93333333333333,21.333333333333332,509.8666666666667
1899,-53.333333333333336,25.6,518.4
1900,-51.2,21.333333333333332,512.0
1901,-49.06666666666666,27.733333333333334,520.5333333333333
1902,-51.2,25.6,514.1333333333333
1903,-53.333333333333336,25.6,522.6666666666666
1904,-51.2,32.0,514.1333333333333
1905,-49.06666666666666,19.2,509.8666666666667
1906,-55.46666666666667,27.733333333333334,509.8666666666667
1907,-51.2,27.733333333333334,512.0
1908,-53.333333333333336,23.466666666666665,514.1333333333333
1909,-49.06666666666666,23.466666666666665,516.2666666666667
1910,-51.2,27.733333333333334,514.1333333333333
1911,-59.733333333333334,23.466666666666665,509.8666666666667
1912,-53.333333333333336,21.333333333333332,509.8666666666667
1913,-53.333333333333336,25.6,505.59999999999997
1914,-53.333333333333336,19.2,516.2666666666667
1915,-46.93333333333333,25.6,514.1333333333333
1916,-44.8,23.466666666666665,503.46666666666664
1917,-46.93333333333333,23.466666666666665,512.0
1918,-51.2,23.466666666666665,512.0
1919,-53.333333333333336,23.466666666666665,507.73333333333335
1920,-49.06666666666666,23.466666666666665,509.8666666666667
1921,-49.06666666666666,23.466666666666665,505.59999999999997
1922,-53.333333333333336,29.866666666666667,512.0
1923,-53.333333333333336,25.6,509.8666666666667
1924,-53.333333333333336,29.866666666666667,505.59999999999997
1925,-53.333333333333336,29.866666666666667,520.5333333333333
1926,-55.46666666666667,23.466666666666665,509.8666666666667
1927,-51.2,27.733333333333334,514.1333333333333
1928,-53.333333333333336,21.333333333333332,509.8666666666667
1929,-55.46666666666667,21.333333333333332,509.8666666666667
1930,-49.06666666666666,21.333333333333332,514.1333333333333
1931,-57.6,21.333333333333332,503.46666666666664
1932,-53.333333333333336,19.2,518.4
1933,-53.333333333333336,25.6,503.46666666666664
1934,-51.2,29.866666666666667,505.59999999999997
1935,-51.2,27.733333333333334,507.73333333333335
1936,-51.2,27.733333333333334,505.59999999999997
1937,-49.06666666666666,23.466666666666665,509.8666666666667
1938,-55.46666666666667,25.6,505.59999999999997
1939,-53.333333333333336,21.333333333333332,512.0
1940,-53.333333333333336,25.6,520.5333333333333
1941,-53.333333333333336,19.2,512.0
1942,-57.6,19.2,509.8666666666667
1943,-53.333333333333336,23.466666666666665,507.73333333333335
1944,-57.6,25.6,507.73333333333335
1945,-53.333333333333336,17.066666666666666,512.0
1946,-53.333333333333336,27.733333333333334,505.59999999999997
1947,-53.333333333333336,25.6,514.1333333333333
1948,-53.333333333333336,27.733333333333334,507.73333333333335
1949,-53.333333333333336,29.866666666666667,507.73333333333335
1950,-53.333333333333336,27.733333333333334,509.8666666666667
1951,-59.733333333333334,27.733333333333334,505.59999999999997
1952,-51.2,27.733333333333334,505.59999999999997
1953,-53.333333333333336,38.4,501.3333333333333
1954,-53.333333333333336,23.466666666666665,514.1333333333333
1955,-51.2,27.733333333333334,514.1333333333333
1956,-57.6,27.733333333333334,518.4
1957,-55.46666666666667,21.333333333333332,518.4
1958,-53.333333333333336,25.6,516.2666666666667
1959,-53.333333333333336,17.066666666666666,514.1333333333333
1960,-61.86666666666667,21.333333333333332,520.5333333333333
1961,-55.46666666666667,21.333333333333332,509.8666666666667
1962,-55.46666666666667,21.333333333333332,501.3333333333333
1963,-57.6,19.2,518.4
1964,-46.93333333333333,25.6,505.59999999999997
1965,-53.333333333333336,23.466666666666665,503.46666666666664
1966,-53.333333333333336,27.733333333333334,509.8666666666667
1967,-51.2,27.733333333333334,499.2
1968,-55.46666666666667,29.866666666666667,501.3333333333333
1969,-49.06666666666666,23.466666666666665,505.59999999999997
1970,-59.733333333333334,27.733333333333334,512.0
1971,-55.46666666666667,27.733333333333334,509.8666666666667
1972,-53.333333333333336,32.0,507.73333333333335
1973,-46.93333333333333,36.266666666666666,509.8666666666667
1974,-55.46666666666667,29.866666666666667,505.59999999999997
1975,-44.8,27.733333333333334,501.3333333333333
1976,-49.06666666666666,34.13333333333333,507.73333333333335
1977,-51.2,27.733333333333334,503.46666666666664
1978,-55.46666666666667,32.0,507.73333333333335
1979,-53.333333333333336,29.866666666666667,509.8666666666667
1980,-53.333333333333336,36.266666666666666,505.59999999999997
1981,-53.333333333333336,29.866666666666667,516.2666666666667
1982,-46.93333333333333,32.0,516.2666666666667
1983,-51.2,36.266666666666666,505.59999999999997
1984,-49.06666666666666,32.0,514.1333333333333
1985,-49.06666666666666,34.13333333333333,509.8666666666667
1986,-55.46666666666667,27.733333333333334,509.8666666666667
1987,-53.333333333333336,27.733333333333334,516.2666666666667
1988,-51.2,27.733333333333334,512.0
1989,-55.46666666666667,29.866666666666667,516.2666666666667
1990,-53.333333333333336,21.333333333333332,512.0
1991,-57.6,27.733333333333334,507.73333333333335
1992,-49.06666666666666,25.6,503.46666666666664
1993,-53.333333333333336,27.733333333333334,516.2666666666667
1994,-49.06666666666666,19.2,514.1333333333333
1995,-64.0,27.733333333333334,509.8666666666667
1996,-57.6,34.13333333333333,509.8666666666667
1997,-53.333333333333336,21.333333333333332,501.3333333333333
1998,-51.2,27.733333333333334,514.1333333333333
1999,-57.6,23.466666666666665,503.46666666666664
2000,-51.2,34.13333333333333,512.0
2001,-53.333333333333336,25.6,503.46666666666664
2002,-53.333333333333336,36.266666666666666,505.59999999999997
2003,-55.46666666666667,27.733333333333334,499.2
2004,-51.2,29.866666666666667,509.8666666666667
2005,-55.46666666666667,27.733333333333334,507.73333333333335
2006,-51.2,27.733333333333334,505.59999999999997
2007,-53.333333333333336,32.0,509.8666666666667
2008,-55.46666666666667,29.866666666666667,518.4
2009,-55.46666666666667,34.13333333333333,514.1333333333333
2010,-53.333333333333336,34.13333333333333,509.8666666666667
2011,-51.2,32.0,509.8666666666667
2012,-53.333333333333336,27.733333333333334,514.1333333333333
2013,-51.2,34.13333333333333,514.1333333333333
2014,-53.333333333333336,32.0,503.46666666666664
2015,-49.06666666666666,27.733333333333334,518.4
2016,-55.46666666666667,34.13333333333333,516.2666666666667
2017,-53.333333333333336,27.733333333333334,509.8666666666667
2018,-46.93333333333333,27.733333333333334,514.1333333333333
2019,-53.333333333333336,29.866666666666667,509.8666666666667
2020,-53.333333333333336,25.6,514.1333333333333
2021,-49.06666666666666,25.6,507.73333333333335
2022,-53.333333333333336,25.6,514.1333333333333
2023,-53.333333333333336,27.733333333333334,501.3333333333333
2024,-55.46666666666667,23.466666666666665,512.0
2025,-59.733333333333334,29.866666666666667,512.0
2026,-55.46666666666667,25.6,507.73333333333335
2027,-57.6,29.866666666666667,507.73333333333335
2028,-57.6,42.666666666666664,499.2
2029,-57.6,34.13333333333333,509.8666666666667
2030,-51.2,34.13333333333333,505.59999999999997
2031,-57.6,36.266666666666666,499.2
2032,-55.46666666666667,38.4,505.59999999999997
2033,-53.333333333333336,34.13333333333333,503.46666666666664
2034,-49.06666666666666,38.4,509.8666666666667
2035,-51.2,38.4,499.2
2036,-53.333333333333336,36.266666666666666,505.59999999999997
2037,-53.333333333333336,32.0,514.1333333333333
2038,-53.333333333333336,32.0,509.8666666666667
2039,-51.2,32.0,520.5333333333333
2040,-49.06666666666666,32.0,509.8666666666667
2041,-49.06666666666666,34.13333333333333,505.59999999999997
2042,-51.2,36.266666666666666,512.0
2043,-55.46666666666667,34.13333333333333,512.0
2044,-46.93333333333333,32.0,514.1333333333333
2045,-59.733333333333334,29.866666666666667,518.4
2046,-49.06666666666666,25.6,518.4
2047,-46.93333333333333,29.866666666666667,516.2666666666667
2048,-55.46666666666667,29.866666666666667,509.8666666666667
2049,-53.333333333333336,32.0,507.73333333333335
2050,-57.6,27.733333333333334,509.8666666666667
2051,-53.333333333333336,32.0,509.8666666666667
2052,-55.46666666666667,25.6,512.0
2053,-55.46666666666667,36.266666666666666,507.73333333333335
2054,-55.46666666666667,29.866666666666667,514.1333333333333
2055,-51.2,36.266666666666666,505.59999999999997
2056,-53.333333333333336,32.0,507.73333333333335
2057,-53.333333333333336,34.13333333333333,507.73333333333335
2058,-61.86666666666667,36.266666666666666,509.8666666666667
2059,-53.333333333333336,38.4,509.8666666666667
2060,-59.733333333333334,40.53333333333333,501.3333333333333
2061,-55.46666666666667,38.4,507.73333333333335
2062,-49.06666666666666,36.266666666666666,507.73333333333335
2063,-53.333333333333336,32.0,501.3333333333333
2064,-53.333333333333336,38.4,507.73333333333335
2065,-55.46666666666667,36.266666666666666,507.73333333333335
2066,-44.8,32.0,507.73333333333335
2067,-57.6,36.266666666666666,505.59999999999997
2068,-55.46666666666667,40.53333333333333,499.2
2069,-55.46666666666667,38.4,507.73333333333335
2070,-57.6,34.13333333333333,507.73333333333335
2071,-57.6,32.0,505.59999999999997
2072,-51.2,38.4,512.0
2073,-55.46666666666667,38.4,503.46666666666664
2074,-55.46666666666667,29.866666666666667,512.0
2075,-55.46666666666667,34.13333333333333,512.0
2076,-57.6,36.266666666666666,507.73333333333335
2077,-55.46666666666667,40.53333333333333,505.59999999999997
2078,-51.2,36.266666666666666,514.1333333333333
2079,-55.46666666666667,36.266666666666666,512.0
2080,-53.333333333333336,32.0,516.2666666666667
2081,-57.6,38.4,518.4
2082,-53.333333333333336,36.266666666666666,518.4
2083,-53.333333333333336,38.4,514.1333333333333
2084,-57.6,38.4,512.0
2085,-55.46666666666667,38.4,518.4
2086,-57.6,38.4,512.0
2087,-53.333333333333336,32.0,526.9333333333333
2088,-53.333333333333336,36.266666666666666,512.0
2089,-55.46666666666667,34.13333333333333,516.2666666666667
2090,-53.333333333333336,29.866666666666667,514.1333333333333
2091,-46.93333333333333,34.13333333333333,503.46666666666664
2092,-55.46666666666667,32.0,507.73333333333335
2093,-57.6,32.0,507.73333333333335
2094,-53.333333333333336,27.733333333333334,507.73333333333335
2095,-59.733333333333334,36.266666666666666,509.8666666666667
2096,-57.6,32.0,505.59999999999997
2097,-55.46666666666667,32.0,514.1333333333333
2098,-55.46666666666667,29.866666666666667,503.46666666666664
2099,-57.6,34.13333333333333,514.1333333333333
2100,-55.46666666666667,34.13333333333333,509.8666666666667
2101,-55.46666666666667,32.0,503.46666666666664
2102,-51.2,29.866666666666667,514.1333333333333
2103,-55.46666666666667,38.4,509.8666666666667
2104,-55.46666666666667,34.13333333333333,509.8666666666667
2105,-51.2,32.0,507.73333333333335
2106,-55.46666666666667,27.733333333333334,512.0
2107,-53.333333333333336,34.13333333333333,512.0
2108,-55.46666666666667,32.0,507.73333333333335
2109,-51.2,29.866666666666667,509.8666666666667
2110,-49.06666666666666,34.13333333333333,509.8666666666667
2111,-46.93333333333333,32.0,512.0
2112,-57.6,27.733333333333334,516.2666666666667
2113,-51.2,29.866666666666667,509.8666666666667
2114,-53.333333333333336,29.866666666666667,512.0
2115,-53.333333333333336,27.733333333333334,509.8666666666667
2116,-49.06666666666666,40.53333333333333,509.8666666666667
2117,-53.333333333333336,34.13333333333333,505.59999999999997
2118,-55.46666666666667,34.13333333333333,507.73333333333335
2119,-53.333333333333336,36.266666666666666,509.8666666666667
2120,-49.06666666666666,25.6,505.59999999999997
2121,-51.2,25.6,505.59999999999997
2122,-55.46666666666667,36.266666666666666,509.8666666666667
2123,-49.06666666666666,23.466666666666665,507.73333333333335
2124,-46.93333333333333,29.866666666666667,516.2666666666667
2125,-51.2,27.733333333333334,512.0
2126,-57.6,34.13333333333333,516.2666666666667
2127,-55.46666666666667,23.466666666666665,514.1333333333333
2128,-49.06666666666666,25.6,514.1333333333333
2129,-53.333333333333336,27.733333333333334,509.8666666666667
2130,-46.93333333333333,25.6,501.3333333333333
2131,-55.46666666666667,29.866666666666667,512.0
2132,-57.6,23.466666666666665,505.59999999999997
2133,-49.06666666666666,29.866666666666667,514.1333333333333
2134,-59.733333333333334,19.2,505.59999999999997
2135,-55.46666666666667,32.0,512.0
2136,-51.2,27.733333333333334,505.59999999999997
2137,-59.733333333333334,25.6,520.5333333333333
2138,-49.06666666666666,21.333333333333332,509.8666666666667
2139,-53.333333333333336,25.6,509.8666666666667
2140,-59.733333333333334,27.733333333333334,512.0
2141,-57.6,27.733333333333334,509.8666666666667
2142,-55.46666666666667,25.6,516.2666666666667
2143,-51.2,27.733333333333334,509.8666666666667
2144,-53.333333333333336,23.466666666666665,507.73333333333335
2145,-55.46666666666667,27.733333333333334,501.3333333333333
2146,-53.333333333333336,29.866666666666667,503.46666666666664
2147,-53.333333333333336,27.733333333333334,509.8666666666667
2148,-51.2,29.866666666666667,514.1333333333333
2149,-49.06666666666666,29.866666666666667,516.2666666666667
2150,-55.46666666666667,32.0,512.0
2151,-51.2,19.2,505.59999999999997
2152,-53.333333333333336,36.266666666666666,516.2666666666667
2153,-53.333333333333336,25.6,516.2666666666667
2154,-53.333333333333336,25.6,512.0
2155,-49.06666666666666,19.2,514.1333333333333
2156,-55.46666666666667,21.333333333333332,512.0
2157,-53.333333333333336,21.333333333333332,522.6666666666666
2158,-51.2,19.2,514.1333333333333
2159,-57.6,17.066666666666666,509.8666666666667
2160,-57.6,21.333333333333332,509.8666666666667
2161,-55.46666666666667,21.333333333333332,501.3333333333333
2162,-53.333333333333336,21.333333333333332,507.73333333333335
2163,-51.2,17.066666666666666,514.1333333333333
2164,-53.333333333333336,19.2,512.0
2165,-59.733333333333334,21.333333333333332,505.59999999999997
2166,-46.93333333333333,21.333333333333332,497.06666666666666
2167,-49.06666666666666,25.6,501.3333333333333
2168,-46.93333333333333,25.6,503.46666666666664
2169,-55.46666666666667,29.866666666666667,512.0
2170,-49.06666666666666,27.733333333333334,503.46666666666664
2171,-53.333333333333336,34.13333333333333,503.46666666666664
2172,-51.2,27.733333333333334,509.8666666666667
2173,-53.333333333333336,29.866666666666667,509.8666666666667
2174,-46.93333333333333,25.6,497.06666666666666
2175,-49.06666666666666,34.13333333333333,509.8666666666667
2176,-46.93333333333333,32.0,507.73333333333335
2177,-51.2,32.0,507.73333333333335
2178,-51.2,25.6,512.0
2179,-51.2,29.866666666666667,505.59999999999997
2180,-53.333333333333336,25.6,509.8666666666667
2181,-57.6,27.733333333333334,516.2666666666667
2182,-51.2,27.733333333333334,512.0
2183,-57.6,25.6,516.2666666666667
2184,-46.93333333333333,21.333333333333332,509.8666666666667
2185,-49.06666666666666,27.733333333333334,520.5333333333333
2186,-57.6,23.466666666666665,512.0
2187,-46.93333333333333,21.333333333333332,503.46666666666664
2188,-57.6,25.6,507.73333333333335
2189,-53.333333333333336,19.2,514.1333333333333
2190,-46.93333333333333,17.066666666666666,518.4
2191,-49.06666666666666,25.6,514.1333333333333
2192,-53.333333333333336,21.333333333333332,518.4
2193,-55.46666666666667,25.6,516.2666666666667
2194,-51.2,21.333333333333332,505.59999999999997
2195,-55.46666666666667,23.466666666666665,507.73333333333335
2196,-55.46666666666667,25.6,505.59999999999997
2197,-49.06666666666666,19.2,507.73333333333335
2198,-53.333333333333336,23.466666666666665,507.73333333333335
2199,-51.2,21.333333333333332,509.8666666666667
2200,-49.06666666666666,17.066666666666666,512.0
2201,-53.333333333333336,21.333333333333332,512.0
2202,-46.93333333333333,17.066666666666666,507.73333333333335
2203,-53.333333333333336,23.466666666666665,509.8666666666667
2204,-46.93333333333333,14.933333333333334,509.8666666666667
2205,-51.2,19.2,509.8666666666667
2206,-51.2,25.6,509.8666666666667
2207,-55.46666666666667,27.733333333333334,507.73333333333335
2208,-55.46666666666667,21.333333333333332,507.73333333333335
2209,-51.2,23.466666666666665,507.73333333333335
2210,-49.06666666666666,25.6,507.73333333333335
2211,-55.46666666666667,21.333333333333332,509.8666666666667
2212,-49.06666666666666,25.6,501.3333333333333
2213,-49.06666666666666,21.333333333333332,509.8666666666667
2214,-53.333333333333336,23.466666666666665,514.1333333333333
2215,-51.2,21.333333333333332,503.46666666666664
2216,-57.6,21.333333333333332,516.2666666666667
2217,-57.6,27.733333333333334,505.59999999999997
2218,-53.333333333333336,21.333333333333332,516.2666666666667
2219,-46.93333333333333,21.333333333333332,501.3333333333333
2220,-44.8,12.8,512.0
2221,-53.333333333333336,21.333333333333332,507.73333333333335
2222,-49.06666666666666,25.6,516.2666666666667
2223,-53.333333333333336,19.2,514.1333333333333
2224,-51.2,21.333333333333332,514.1333333333333
2225,-53.333333333333336,23.466666666666665,509.8666666666667
2226,-44.8,21.333333333333332,516.2666666666667
2227,-57.6,23.466666666666665,512.0
2228,-51.2,23.466666666666665,512.0
2229,-49.06666666666666,21.333333333333332,509.8666666666667
2230,-46.93333333333333,19.2,514.1333333333333
2231,-55.46666666666667,17.066666666666666,514.1333333333333
2232,-49.06666666666666,17.066666666666666,509.8666666666667
2233,-53.333333333333336,12.8,512.0
2234,-53.333333333333336,23.466666666666665,512.0
2235,-51.2,19.2,507.73333333333335
2236,-51.2,14.933333333333334,509.8666666666667
2237,-61.86666666666667,19.2,492.8
2238,-59.733333333333334,19.2,488.5333333333333
2239,-76.8,32.0,503.46666666666664
2240,-53.333333333333336,25.6,535.4666666666667
2241,-57.6,17.066666666666666,524.8
2242,-49.06666666666666,25.6,537.6
2243,-36.266666666666666,21.333333333333332,492.8
2244,-59.733333333333334,12.8,507.73333333333335
2245,-44.8,14.933333333333334,503.46666666666664
2246,-49.06666666666666,19.2,507.73333333333335
2247,-53.333333333333336,21.333333333333332,503.46666666666664
2248,-49.06666666666666,17.066666666666666,507.73333333333335
2249,-42.666666666666664,19.2,505.59999999999997
2250,-53.333333333333336,21.333333333333332,512.0
2251,-44.8,14.933333333333334,507.73333333333335
2252,-46.93333333333333,10.666666666666666,503.46666666666664
2253,-46.93333333333333,21.333333333333332,512.0
2254,-42.666666666666664,17.066666666666666,509.8666666666667
2255,-44.8,14.933333333333334,503.46666666666664
2256,-51.2,17.066666666666666,512.0
2257,-53.333333333333336,21.333333333333332,505.59999999999997
2258,-51.2,14.933333333333334,509.8666666666667
2259,-51.2,17.066666666666666,503.46666666666664
2260,-53.333333333333336,14.933333333333334,507.73333333333335
2261,-44.8,14.933333333333334,512.0
2262,-53.333333333333336,14.933333333333334,507.73333333333335
2263,-53.333333333333336,19.2,509.8666666666667
2264,-51.2,14.933333333333334,501.3333333333333
2265,-49.06666666666666,14.933333333333334,507.73333333333335
2266,-55.46666666666667,23.466666666666665,509.8666666666667
2267,-51.2,19.2,501.3333333333333
2268,-46.93333333333333,14.933333333333334,501.3333333333333
2269,-49.06666666666666,12.8,512.0
2270,-49.06666666666666,12.8,501.3333333333333
2271,-49.06666666666666,17.066666666666666,512.0
2272,-46.93333333333333,12.8,507.73333333333335
2273,-51.2,14.933333333333334,501.3333333333333
2274,-51.2,10.666666666666666,507.73333333333335
2275,-49.06666666666666,14.933333333333334,505.59999999999997
2276,-42.666666666666664,17.066666666666666,507.73333333333335
2277,-59.733333333333334,19.2,509.8666666666667
2278,-61.86666666666667,19.2,505.59999999999997
2279,-46.93333333333333,12.8,509.8666666666667
2280,-55.46666666666667,14.933333333333334,507.73333333333335
2281,-51.2,14.933333333333334,503.46666666666664
2282,-46.93333333333333,12.8,512.0
2283,-51.2,8.533333333333333,514.1333333333333
2284,-51.2,12.8,514.1333333333333
2285,-46.93333333333333,19.2,505.59999999999997
2286,-57.6,12.8,514.1333333333333
2287,-46.93333333333333,17.066666666666666,501.3333333333333
2288,-46.93333333333333,19.2,512.0
2289,-49.06666666666666,21.333333333333332,505.59999999999997
2290,-46.93333333333333,10.666666666666666,507.73333333333335
2291,-46.93333333333333,8.533333333333333,509.8666666666667
2292,-51.2,17.066666666666666,505.59999999999997
2293,-49.06666666666666,12.8,507.73333333333335
2294,-51.2,10.666666666666666,501.3333333333333
2295,-51.2,17.066666666666666,512.0
2296,-53.333333333333336,17.066666666666666,518.4
2297,-51.2,14.933333333333334,518.4
2298,-46.93333333333333,4.266666666666667,516.2666666666667
2299,-51.2,12.8,509.8666666666667
2300,-44.8,8.533333333333333,512.0
2301,-53.333333333333336,19.2,516.2666666666667
2302,-53.333333333333336,14.933333333333334,512.0
2303,-46.93333333333333,8.533333333333333,514.1333333333333
2304,-51.2,12.8,509.8666666666667
2305,-53.333333333333336,14.933333333333334,516.2666666666667
2306,-49.06666666666666,12.8,505.59999999999997
2307,-46.93333333333333,17.066666666666666,512.0
2308,-49.06666666666666,17.066666666666666,509.8666666666667
2309,-49.06666666666666,12.8,514.1333333333333
2310,-49.06666666666666,23.466666666666665,507.73333333333335
2311,-46.93333333333333,14.933333333333334,507.73333333333335
2312,-51.2,14.933333333333334,507.73333333333335
2313,-49.06666666666666,14.933333333333334,509.8666666666667
2314,-51.2,21.333333333333332,507.73333333333335
2315,-49.06666666666666,23.466666666666665,507.73333333333335
2316,-49.06666666666666,17.066666666666666,505.59999999999997
2317,-49.06666666666666,12.8,507.73333333333335
2318,-51.2,19.2,507.73333333333335
2319,-49.06666666666666,17.066666666666666,512.0
2320,-42.666666666666664,17.066666666666666,509.8666666666667
2321,-42.666666666666664,14.933333333333334,509.8666666666667
2322,-49.06666666666666,21.333333333333332,507.73333333333335
2323,-46.93333333333333,17.066666666666666,509.8666666666667
2324,-53.333333333333336,14.933333333333334,509.8666666666667
2325,-51.2,17.066666666666666,505.59999999999997
2326,-46.93333333333333,17.066666666666666,514.1333333333333
2327,-51.2,19.2,512.0
2328,-57.6,17.066666666666666,509.8666666666667
2329,-53.333333333333336,19.2,518.4
2330,-55.46666666666667,14.933333333333334,512.0
2331,-51.2,12.8,507.73333333333335
2332,-51.2,14.933333333333334,512.0
2333,-46.93333333333333,12.8,503.46666666666664
2334,-51.2,19.2,512.0
2335,-51.2,17.066666666666666,512.0
2336,-53.333333333333336,21.333333333333332,501.3333333333333
2337,-44.8,17.066666666666666,512.0
2338,-53.333333333333336,25.6,507.73333333333335
2339,-53.333333333333336,17.066666666666666,505.59999999999997
2340,-57.6,23.466666666666665,501.3333333333333
2341,-53.333333333333336,21.333333333333332,509.8666666666667
2342,-51.2,23.466666666666665,503.46666666666664
2343,-53.333333333333336,25.6,507.73333333333335
2344,-53.333333333333336,19.2,509.8666666666667
2345,-49.06666666666666,19.2,503.46666666666664
2346,-53.333333333333336,21.333333333333332,509.8666666666667
2347,-55.46666666666667,19.2,509.8666666666667
2348,-51.2,19.2,505.59999999999997
2349,-51.2,21.333333333333332,503.46666666666664
2350,-51.2,21.333333333333332,518.4
2351,-49.06666666666666,21.333333333333332,516.2666666666667
2352,-53.333333333333336,21.333333333333332,509.8666666666667
2353,-46.93333333333333,21.333333333333332,514.1333333333333
2354,-55.46666666666667,21.333333333333332,512.0
2355,-49.06666666666666,19.2,512.0
2356,-51.2,23.466666666666665,520.5333333333333
2357,-49.06666666666666,21.333333333333332,505.59999999999997
2358,-44.8,17.066666666666666,512.0
2359,-57.6,23.466666666666665,512.0
2360,-44.8,17.066666666666666,520.5333333333333
2361,-46.93333333333333,19.2,507.73333333333335
2362,-49.06666666666666,21.333333333333332,507.73333333333335
2363,-46.93333333333333,23.466666666666665,509.8666666666667
2364,-49.06666666666666,17.066666666666666,512.0
2365,-53.333333333333336,17.066666666666666,512.0
2366,-51.2,17.066666666666666,505.59999999999997
2367,-53.333333333333336,21.333333333333332,507.73333333333335
2368,-51.2,21.333333333333332,501.3333333333333
2369,-57.6,29.866666666666667,501.3333333333333
2370,-57.6,27.733333333333334,509.8666666666667
2371,-57.6,21.333333333333332,505.59999999999997
2372,-51.2,23.466666666666665,505.59999999999997
2373,-49.06666666666666,23.466666666666665,507.73333333333335
2374,-49.06666666666666,27.733333333333334,509.8666666666667
2375,-51.2,25.6,512.0
2376,-49.06666666666666,19.2,514.1333333333333
2377,-57.6,25.6,499.2
2378,-49.06666666666666,25.6,509.8666666666667
2379,-49.06666666666666,23.466666666666665,509.8666666666667
2380,-53.333333333333336,23.466666666666665,501.3333333333333
2381,-53.333333333333336,19.2,505.59999999999997
2382,-53.333333333333336,14.933333333333334,514.1333333333333
2383,-55.46666666666667,21.333333333333332,512.0
2384,-49.06666666666666,14.933333333333334,505.59999999999997
2385,-51.2,21.333333333333332,512.0
2386,-49.06666666666666,23.466666666666665,505.59999999999997
2387,-55.46666666666667,25.6,512.0
2388,-53.333333333333336,23.466666666666665,512.0
2389,-53.333333333333336,23.466666666666665,505.59999999999997
2390,-51.2,19.2,512.0
2391,-61.86666666666667,21.333333333333332,503.46666666666664
2392,-53.333333333333336,23.466666666666665,507.73333333333335
2393,-53.333333333333336,23.466666666666665,518.4
2394,-42.666666666666664,25.6,507.73333333333335
2395,-51.2,23.466666666666665,516.2666666666667
2396,-46.93333333333333,27.733333333333334,503.46666666666664
2397,-49.06666666666666,27.733333333333334,509.8666666666667
2398,-53.333333333333336,27.733333333333334,505.59999999999997
2399,-53.333333333333336,21.333333333333332,509.8666666666667
2400,-55.46666666666667,23.466666666666665,507.73333333333335
2401,-55.46666666666667,25.6,514.1333333333333
2402,-49.06666666666666,27.733333333333334,507.73333333333335
2403,-49.06666666666666,27.733333333333334,503.46666666666664
2404,-51.2,27.733333333333334,505.59999999999997
2405,-53.333333333333336,27.733333333333334,503.46666666666664
2406,-49.06666666666666,21.333333333333332,505.59999999999997
2407,-44.8,23.466666666666665,509.8666666666667
2408,-46.93333333333333,23.466666666666665,514.1333333333333
2409,-51.2,21.333333333333332,505.59999999999997
2410,-53.333333333333336,27.733333333333334,507.73333333333335
2411,-51.2,21.333333333333332,507.73333333333335
2412,-53.333333333333336,23.466666666666665,507.73333333333335
2413,-55.46666666666667,25.6,507.73333333333335
2414,-55.46666666666667,32.0,503.46666666666664
2415,-53.333333333333336,17.066666666666666,509.8666666666667
2416,-57.6,23.466666666666665,507.73333333333335
2417,-51.2,23.466666666666665,505.59999999999997
2418,-57.6,29.866666666666667,503.46666666666664
2419,-53.333333333333336,27.733333333333334,503.46666666666664
2420,-49.06666666666666,21.333333333333332,514.1333333333333
2421,-49.06666666666666,17.066666666666666,516.2666666666667
2422,-49.06666666666666,19.2,514.1333333333333
2423,-46.93333333333333,25.6,512.0
2424,-51.2,32.0,509.8666666666667
2425,-53.333333333333336,25.6,514.1333333333333
2426,-51.2,27.733333333333334,503.46666666666664
2427,-57.6,29.866666666666667,512.0
2428,-53.333333333333336,27.733333333333334,512.0
2429,-53.333333333333336,27.733333333333334,512.0
2430,-51.2,19.2,524.8
2431,-53.333333333333336,23.466666666666665,514.1333333333333
2432,-57.6,23.466666666666665,514.1333333333333
2433,-55.46666666666667,25.6,514.1333333333333
2434,-57.6,19.2,516.2666666666667
2435,-57.6,17.066666666666666,516.2666666666667
2436,-55.46666666666667,21.333333333333332,507.73333333333335
2437,-55.46666666666667,25.6,514.1333333333333
2438,-49.06666666666666,21.333333333333332,509.8666666666667
2439,-59.733333333333334,32.0,503.46666666666664
2440,-57.6,23.466666666666665,507.73333333333335
2441,-55.46666666666667,21.333333333333332,507.73333333333335
2442,-51.2,23.466666666666665,505.59999999999997
2443,-53.333333333333336,25.6,512.0
2444,-53.333333333333336,29.866666666666667,505.59999999999997
2445,-51.2,19.2,503.46666666666664
2446,-55.46666666666667,32.0,505.59999999999997
2447,-55.46666666666667,32.0,507.73333333333335
2448,-57.6,32.0,501.3333333333333
2449,-51.2,34.13333333333333,505.59999999999997
2450,-53.333333333333336,32.0,494.93333333333334
2451,-51.2,29.866666666666667,509.8666666666667
2452,-53.333333333333336,38.4,507.73333333333335
2453,-51.2,27.733333333333334,516.2666666666667
2454,-51.2,34.13333333333333,507.73333333333335
2455,-51.2,32.0,522.6666666666666
2456,-59.733333333333334,36.266666666666666,514.1333333333333
2457,-55.46666666666667,34.13333333333333,516.2666666666667
2458,-51.2,27.733333333333334,503.46666666666664
2459,-53.333333333333336,32.0,507.73333333333335
2460,-59.733333333333334,32.0,512.0
2461,-55.46666666666667,32.0,516.2666666666667
2462,-61.86666666666667,27.733333333333334,514.1333333333333
2463,-57.6,32.0,512.0
2464,-61.86666666666667,27.733333333333334,516.2666666666667
2465,-55.46666666666667,21.333333333333332,505.59999999999997
2466,-53.333333333333336,23.466666666666665,514.1333333333333
